ms		ax 		ay		az (g's) 
9136	-0.11	0.03	1.03
9141	-0.11	0.02	1.03
9146	-0.11	0.02	1.03
9151	-0.11	0.02	1.03
9156	-0.11	0.02	1.03
9161	-0.11	0.03	1.04
9166	-0.11	0.03	1.04
9171	-0.10	0.02	1.02
9176	-0.10	0.02	1.02
9181	-0.10	0.02	1.00
9186	-0.10	0.02	1.00
9191	-0.11	0.02	1.02
9196	-0.11	0.02	1.02
9201	-0.11	0.02	1.03
9206	-0.11	0.02	1.03
9211	-0.11	0.02	1.02
9216	-0.11	0.02	1.02
9221	-0.11	0.02	1.02
9226	-0.11	0.02	1.02
9231	-0.10	0.02	1.03
9236	-0.10	0.02	1.03
9241	-0.10	0.02	1.02
9246	-0.10	0.02	1.02
9251	-0.10	0.02	1.02
9256	-0.10	0.02	1.02
9261	-0.10	0.03	1.03
9266	-0.10	0.03	1.03
9271	-0.10	0.03	1.02
9276	-0.10	0.03	1.02
9281	-0.11	0.02	1.03
9286	-0.11	0.02	1.03
9291	-0.11	0.02	1.02
9296	-0.11	0.02	1.02
9301	-0.11	0.02	1.02
9306	-0.11	0.02	1.02
9311	-0.11	0.02	1.02
9316	-0.11	0.02	1.02
9321	-0.11	0.02	1.02
9326	-0.11	0.02	1.02
9331	-0.11	0.02	1.02
9336	-0.11	0.02	1.02
9341	-0.10	0.02	1.03
9346	-0.10	0.02	1.03
9351	-0.10	0.02	1.02
9356	-0.10	0.02	1.02
9361	-0.10	0.02	1.02
9366	-0.10	0.02	1.02
9371	-0.10	0.02	1.02
9376	-0.10	0.02	1.02
9381	-0.10	0.02	1.02
9386	-0.10	0.02	1.02
9391	-0.10	0.02	1.02
9396	-0.10	0.02	1.02
9401	-0.10	0.02	1.02
9406	-0.10	0.02	1.02
9411	-0.11	0.02	1.02
9416	-0.11	0.02	1.02
9421	-0.10	0.02	1.02
9426	-0.10	0.02	1.02
9431	-0.10	0.02	1.02
9436	-0.10	0.02	1.02
9441	-0.10	0.02	1.03
9446	-0.10	0.02	1.03
9451	-0.11	0.02	1.03
9456	-0.11	0.02	1.03
9461	-0.11	0.02	1.02
9466	-0.11	0.02	1.02
9471	-0.11	0.02	1.02
9476	-0.11	0.02	1.02
9481	-0.11	0.02	1.02
9486	-0.11	0.02	1.02
9491	-0.11	0.02	1.03
9496	-0.11	0.02	1.03
9501	-0.10	0.02	1.03
9506	-0.10	0.02	1.03
9511	-0.11	0.02	1.02
9516	-0.11	0.02	1.02
9521	-0.11	0.02	1.02
9526	-0.11	0.02	1.02
9531	-0.11	0.02	1.02
9536	-0.11	0.02	1.02
9541	-0.10	0.02	1.03
9546	-0.10	0.02	1.03
9551	-0.13	0.03	1.03
9556	-0.13	0.03	1.03
9561	-0.30	0.13	1.02
9566	-0.30	0.13	1.02
9571	0.08	0.57	1.26
9576	0.08	0.57	1.26
9581	0.09	0.44	1.35
9586	0.09	0.44	1.35
9591	0.03	0.27	0.73
9596	0.03	0.27	0.73
9601	-0.30	0.02	0.86
9606	-0.30	0.02	0.86
9611	-0.37	0.02	1.39
9616	-0.37	0.02	1.39
9621	-0.62	0.01	1.46
9626	-0.62	0.01	1.46
9631	-0.92	-0.07	1.58
9636	-0.92	-0.07	1.58
9641	-1.33	-0.16	1.95
9646	-1.33	-0.16	1.95
9651	-1.06	-0.12	2.00
9656	-1.06	-0.12	2.00
9661	-0.50	-0.02	2.00
9666	-0.50	-0.02	2.00
9671	-0.94	0.18	2.00
9676	-0.94	0.18	2.00
9681	-1.14	0.22	2.00
9686	-1.14	0.22	2.00
9691	-1.16	0.12	2.00
9696	-1.16	0.12	2.00
9701	-1.34	-0.11	1.94
9706	-1.34	-0.11	1.94
9711	-1.37	-0.50	1.47
9716	-1.37	-0.50	1.47
9721	-1.14	-0.73	1.04
9726	-1.14	-0.73	1.04
9731	-0.93	-0.78	0.74
9736	-0.93	-0.78	0.74
9741	-0.77	-0.75	0.52
9746	-0.77	-0.75	0.52
9751	-0.65	-0.68	0.43
9756	-0.65	-0.68	0.43
9761	-0.53	-0.58	0.48
9766	-0.53	-0.58	0.48
9771	-0.43	-0.42	0.56
9776	-0.43	-0.42	0.56
9781	-0.37	-0.33	0.59
9786	-0.37	-0.33	0.59
9791	-0.37	-0.31	0.62
9796	-0.37	-0.31	0.62
9801	-0.35	-0.28	0.59
9806	-0.35	-0.28	0.59
9811	-0.26	-0.26	0.52
9816	-0.26	-0.26	0.52
9821	-0.23	-0.25	0.37
9826	-0.23	-0.25	0.37
9831	-0.23	-0.18	0.14
9836	-0.23	-0.18	0.14
9841	-0.21	-0.08	-0.10
9846	-0.21	-0.08	-0.10
9851	-0.19	0.03	-0.34
9856	-0.19	0.03	-0.34
9861	-0.20	0.12	-0.52
9866	-0.20	0.12	-0.52
9871	-0.19	0.23	-0.65
9876	-0.19	0.23	-0.65
9881	-0.13	0.35	-0.72
9886	-0.13	0.35	-0.72
9891	-0.09	0.48	-0.81
9896	-0.09	0.48	-0.81
9901	-0.11	0.58	-0.95
9906	-0.11	0.58	-0.95
9911	-0.22	0.59	-1.15
9916	-0.22	0.59	-1.15
9921	-0.02	0.83	-1.68
9926	-0.02	0.83	-1.68
9931	0.13	0.99	-1.95
9936	0.13	0.99	-1.95
9941	0.10	1.06	-2.00
9946	0.10	1.06	-2.00
9951	0.22	1.09	-2.00
9956	0.22	1.09	-2.00
9961	0.22	1.00	-2.00
9966	0.22	1.00	-2.00
9971	0.09	0.86	-2.00
9976	0.09	0.86	-2.00
9981	-0.11	0.59	-2.00
9986	-0.11	0.59	-2.00
9991	-0.37	0.24	-1.88
9996	-0.37	0.24	-1.88
10001	-0.66	-0.10	-1.53
10006	-0.66	-0.10	-1.53
10011	-1.00	-0.37	-1.19
10016	-1.00	-0.37	-1.19
10021	-1.26	-0.58	-0.88
10026	-1.26	-0.58	-0.88
10031	-1.52	-0.80	-0.47
10036	-1.52	-0.80	-0.47
10041	-1.96	-0.95	0.05
10046	-1.96	-0.95	0.05
10051	-2.00	-1.11	0.56
10056	-2.00	-1.11	0.56
10061	-1.99	-1.27	1.18
10066	-1.99	-1.27	1.18
10071	-2.00	-1.31	1.88
10076	-2.00	-1.31	1.88
10081	-2.00	-0.98	2.00
10086	-2.00	-0.98	2.00
10091	-2.00	-0.02	1.99
10096	-2.00	-0.02	1.99
10101	-2.00	1.22	2.00
10106	-2.00	1.22	2.00
10111	-1.99	1.78	2.00
10116	-1.99	1.78	2.00
10121	-1.69	1.53	2.00
10126	-1.69	1.53	2.00
10131	-1.13	1.16	2.00
10136	-1.13	1.16	2.00
10141	-1.33	0.72	2.00
10146	-1.33	0.72	2.00
10151	-1.64	0.10	2.00
10156	-1.64	0.10	2.00
10161	-1.54	-0.31	1.96
10166	-1.54	-0.31	1.96
10171	-1.31	-0.40	1.51
10176	-1.31	-0.40	1.51
10181	-1.07	-0.35	1.02
10186	-1.07	-0.35	1.02
10191	-0.85	-0.22	0.77
10196	-0.85	-0.22	0.77
10201	-0.66	-0.06	0.64
10206	-0.66	-0.06	0.64
10211	-0.47	0.09	0.55
10216	-0.47	0.09	0.55
10221	-0.32	0.17	0.51
10226	-0.32	0.17	0.51
10231	-0.22	0.19	0.50
10236	-0.22	0.19	0.50
10241	-0.15	0.16	0.49
10246	-0.15	0.16	0.49
10251	-0.08	0.11	0.45
10256	-0.08	0.11	0.45
10261	-0.02	0.03	0.43
10266	-0.02	0.03	0.43
10271	0.01	-0.02	0.42
10276	0.01	-0.02	0.42
10281	0.08	-0.06	0.39
10286	0.08	-0.06	0.39
10291	0.13	-0.09	0.33
10296	0.13	-0.09	0.33
10301	0.15	-0.11	0.24
10306	0.15	-0.11	0.24
10311	0.16	-0.11	0.15
10316	0.16	-0.11	0.15
10321	0.18	-0.11	0.06
10326	0.18	-0.11	0.06
10331	0.21	-0.11	0.00
10336	0.21	-0.11	0.00
10341	0.25	-0.10	-0.03
10346	0.25	-0.10	-0.03
10351	0.29	-0.08	-0.05
10356	0.29	-0.08	-0.05
10361	0.32	-0.04	-0.07
10366	0.32	-0.04	-0.07
10371	0.35	-0.00	-0.14
10376	0.35	-0.00	-0.14
10381	0.34	0.06	-0.17
10386	0.34	0.06	-0.17
10391	0.33	0.11	-0.10
10396	0.33	0.11	-0.10
10401	0.30	0.12	0.03
10406	0.30	0.12	0.03
10411	0.27	0.16	0.14
10416	0.27	0.16	0.14
10421	0.26	0.19	0.21
10426	0.26	0.19	0.21
10431	0.22	0.19	0.22
10436	0.22	0.19	0.22
10441	0.15	0.12	0.22
10446	0.15	0.12	0.22
10451	0.04	-0.01	0.19
10456	0.04	-0.01	0.19
10461	-0.12	-0.18	0.19
10466	-0.12	-0.18	0.19
10471	-0.19	-0.42	0.20
10476	-0.19	-0.42	0.20
10481	-0.14	-0.82	0.31
10486	-0.14	-0.82	0.31
10491	-0.28	-1.21	0.68
10496	-0.28	-1.21	0.68
10501	-0.54	-1.40	1.14
10506	-0.54	-1.40	1.14
10511	-1.00	-1.38	1.77
10516	-1.00	-1.38	1.77
10521	-1.42	-1.12	2.00
10526	-1.42	-1.12	2.00
10531	-1.31	-0.57	2.00
10536	-1.31	-0.57	2.00
10541	-1.19	0.03	1.99
10546	-1.19	0.03	1.99
10551	-1.01	0.50	2.00
10556	-1.01	0.50	2.00
10561	-0.90	0.72	2.00
10566	-0.90	0.72	2.00
10571	-1.16	0.68	2.00
10576	-1.16	0.68	2.00
10581	-1.35	0.35	2.00
10586	-1.35	0.35	2.00
10591	-1.39	-0.07	2.00
10596	-1.39	-0.07	2.00
10601	-1.37	-0.36	1.94
10606	-1.37	-0.36	1.94
10611	-1.31	-0.50	1.48
10616	-1.31	-0.50	1.48
10621	-1.21	-0.56	1.05
10626	-1.21	-0.56	1.05
10631	-1.06	-0.50	0.78
10636	-1.06	-0.50	0.78
10641	-0.95	-0.34	0.52
10646	-0.95	-0.34	0.52
10651	-0.80	-0.16	0.28
10656	-0.80	-0.16	0.28
10661	-0.64	-0.01	0.06
10666	-0.64	-0.01	0.06
10671	-0.54	0.11	-0.14
10676	-0.54	0.11	-0.14
10681	-0.43	0.20	-0.30
10686	-0.43	0.20	-0.30
10691	-0.32	0.25	-0.42
10696	-0.32	0.25	-0.42
10701	-0.21	0.28	-0.48
10706	-0.21	0.28	-0.48
10711	-0.15	0.31	-0.53
10716	-0.15	0.31	-0.53
10721	-0.15	0.33	-0.62
10726	-0.15	0.33	-0.62
10731	-0.08	0.32	-0.70
10736	-0.08	0.32	-0.70
10741	-0.13	0.17	-0.56
10746	-0.13	0.17	-0.56
10751	-0.30	-0.03	-0.49
10756	-0.30	-0.03	-0.49
10761	-0.27	-0.13	-0.65
10766	-0.27	-0.13	-0.65
10771	-0.13	-0.18	-1.16
10776	-0.13	-0.18	-1.16
10781	-0.07	-0.33	-1.34
10786	-0.07	-0.33	-1.34
10791	-0.09	-0.46	-1.31
10796	-0.09	-0.46	-1.31
10801	0.01	-0.54	-1.41
10806	0.01	-0.54	-1.41
10811	0.18	-0.58	-1.63
10816	0.18	-0.58	-1.63
10821	0.20	-0.55	-1.73
10826	0.20	-0.55	-1.73
10831	0.14	-0.46	-1.64
10836	0.14	-0.46	-1.64
10841	0.13	-0.32	-1.50
10846	0.13	-0.32	-1.50
10851	0.13	-0.23	-1.30
10856	0.13	-0.23	-1.30
10861	0.09	-0.27	-1.16
10866	0.09	-0.27	-1.16
10871	0.06	-0.40	-1.10
10876	0.06	-0.40	-1.10
10881	0.00	-0.56	-1.03
10886	0.00	-0.56	-1.03
10891	-0.06	-0.65	-0.93
10896	-0.06	-0.65	-0.93
10901	-0.10	-0.71	-0.81
10906	-0.10	-0.71	-0.81
10911	-0.22	-0.76	-0.68
10916	-0.22	-0.76	-0.68
10921	-0.39	-0.80	-0.48
10926	-0.39	-0.80	-0.48
10931	-0.52	-0.87	-0.19
10936	-0.52	-0.87	-0.19
10941	-0.71	-0.96	0.13
10946	-0.71	-0.96	0.13
10951	-0.95	-1.02	0.55
10956	-0.95	-1.02	0.55
10961	-1.24	-0.84	1.14
10966	-1.24	-0.84	1.14
10971	-1.82	-0.47	1.62
10976	-1.82	-0.47	1.62
10981	-2.00	0.04	1.84
10986	-2.00	0.04	1.84
10991	-2.00	0.99	2.00
10996	-2.00	0.99	2.00
11001	-1.99	1.03	2.00
11006	-1.99	1.03	2.00
11011	-1.92	0.55	2.00
11016	-1.92	0.55	2.00
11021	-1.14	0.54	2.00
11026	-1.14	0.54	2.00
11031	-0.61	0.61	2.00
11036	-0.61	0.61	2.00
11041	-0.95	0.43	2.00
11046	-0.95	0.43	2.00
11051	-1.06	0.17	2.00
11056	-1.06	0.17	2.00
11061	-0.97	0.01	1.78
11066	-0.97	0.01	1.78
11071	-0.85	-0.13	1.13
11076	-0.85	-0.13	1.13
11081	-0.67	-0.30	0.74
11086	-0.67	-0.30	0.74
11091	-0.49	-0.43	0.55
11096	-0.49	-0.43	0.55
11101	-0.34	-0.48	0.43
11106	-0.34	-0.48	0.43
11111	-0.20	-0.48	0.35
11116	-0.20	-0.48	0.35
11121	-0.11	-0.46	0.32
11126	-0.11	-0.46	0.32
11131	-0.06	-0.43	0.30
11136	-0.06	-0.43	0.30
11141	-0.03	-0.41	0.27
11146	-0.03	-0.41	0.27
11151	0.02	-0.40	0.25
11156	0.02	-0.40	0.25
11161	0.07	-0.38	0.24
11166	0.07	-0.38	0.24
11171	0.10	-0.36	0.22
11176	0.10	-0.36	0.22
11181	0.14	-0.34	0.21
11186	0.14	-0.34	0.21
11191	0.17	-0.33	0.20
11196	0.17	-0.33	0.20
11201	0.21	-0.32	0.19
11206	0.21	-0.32	0.19
11211	0.22	-0.30	0.20
11216	0.22	-0.30	0.20
11221	0.24	-0.26	0.15
11226	0.24	-0.26	0.15
11231	0.20	-0.21	0.14
11236	0.20	-0.21	0.14
11241	0.19	-0.18	0.16
11246	0.19	-0.18	0.16
11251	0.22	-0.16	0.15
11256	0.22	-0.16	0.15
11261	0.18	-0.16	0.16
11266	0.18	-0.16	0.16
11271	0.13	-0.17	0.18
11276	0.13	-0.17	0.18
11281	0.09	-0.15	0.20
11286	0.09	-0.15	0.20
11291	0.00	-0.18	0.22
11296	0.00	-0.18	0.22
11301	-0.10	-0.23	0.23
11306	-0.10	-0.23	0.23
11311	-0.15	-0.31	0.25
11316	-0.15	-0.31	0.25
11321	-0.20	-0.45	0.36
11326	-0.20	-0.45	0.36
11331	-0.29	-0.62	0.56
11336	-0.29	-0.62	0.56
11341	-0.57	-0.86	1.01
11346	-0.57	-0.86	1.01
11351	-0.91	-1.09	1.66
11356	-0.91	-1.09	1.66
11361	-1.19	-1.19	2.00
11366	-1.19	-1.19	2.00
11371	-1.43	-1.09	2.00
11376	-1.43	-1.09	2.00
11381	-1.81	-0.76	1.99
11386	-1.81	-0.76	1.99
11391	-2.00	-0.29	2.00
11396	-2.00	-0.29	2.00
11401	-1.98	0.01	2.00
11406	-1.98	0.01	2.00
11411	-1.94	0.05	2.00
11416	-1.94	0.05	2.00
11421	-1.99	-0.19	2.00
11426	-1.99	-0.19	2.00
11431	-2.00	-0.50	2.00
11436	-2.00	-0.50	2.00
11441	-2.00	-0.62	1.97
11446	-2.00	-0.62	1.97
11451	-2.00	-0.49	1.39
11456	-2.00	-0.49	1.39
11461	-1.93	-0.23	0.50
11466	-1.93	-0.23	0.50
11471	-1.62	0.01	-0.14
11476	-1.62	0.01	-0.14
11481	-1.39	0.10	-0.62
11486	-1.39	0.10	-0.62
11491	-1.26	0.06	-1.00
11496	-1.26	0.06	-1.00
11501	-1.14	-0.09	-1.44
11506	-1.14	-0.09	-1.44
11511	-1.00	-0.36	-1.85
11516	-1.00	-0.36	-1.85
11521	-0.99	-0.74	-1.96
11526	-0.99	-0.74	-1.96
11531	-1.07	-1.28	-1.95
11536	-1.07	-1.28	-1.95
11541	-1.05	-1.33	-2.00
11546	-1.05	-1.33	-2.00
11551	-1.07	-0.87	-2.00
11556	-1.07	-0.87	-2.00
11561	-0.99	-0.24	-2.00
11566	-0.99	-0.24	-2.00
11571	-0.88	0.57	-2.00
11576	-0.88	0.57	-2.00
11581	-0.63	1.37	-2.00
11586	-0.63	1.37	-2.00
11591	-0.48	1.90	-2.00
11596	-0.48	1.90	-2.00
11601	-0.42	2.00	-2.00
11606	-0.42	2.00	-2.00
11611	-0.36	2.00	-1.99
11616	-0.36	2.00	-1.99
11621	-0.36	2.00	-1.86
11626	-0.36	2.00	-1.86
11631	-0.60	1.85	-1.68
11636	-0.60	1.85	-1.68
11641	-1.05	1.28	-1.46
11646	-1.05	1.28	-1.46
11651	-1.48	0.65	-1.21
11656	-1.48	0.65	-1.21
11661	-1.92	-0.05	-0.75
11666	-1.92	-0.05	-0.75
11671	-2.00	-0.77	-0.09
11676	-2.00	-0.77	-0.09
11681	-2.00	-1.27	0.80
11686	-2.00	-1.27	0.80
11691	-2.00	-1.55	1.83
11696	-2.00	-1.55	1.83
11701	-2.00	-1.47	2.00
11706	-2.00	-1.47	2.00
11711	-2.00	-0.83	1.99
11716	-2.00	-0.83	1.99
11721	-2.00	-0.35	1.99
11726	-2.00	-0.35	1.99
11731	-2.00	-0.30	2.00
11736	-2.00	-0.30	2.00
11741	-2.00	-0.72	2.00
11746	-2.00	-0.72	2.00
11751	-2.00	-1.05	2.00
11756	-2.00	-1.05	2.00
11761	-2.00	-0.82	2.00
11766	-2.00	-0.82	2.00
11771	-1.98	-0.33	2.00
11776	-1.98	-0.33	2.00
11781	-1.95	0.10	2.00
11786	-1.95	0.10	2.00
11791	-1.90	0.32	2.00
11796	-1.90	0.32	2.00
11801	-1.81	0.38	1.90
11806	-1.81	0.38	1.90
11811	-1.66	0.40	1.24
11816	-1.66	0.40	1.24
11821	-1.41	0.38	0.71
11826	-1.41	0.38	0.71
11831	-1.12	0.36	0.42
11836	-1.12	0.36	0.42
11841	-0.85	0.36	0.21
11846	-0.85	0.36	0.21
11851	-0.64	0.32	0.07
11856	-0.64	0.32	0.07
11861	-0.45	0.25	-0.01
11866	-0.45	0.25	-0.01
11871	-0.24	0.20	-0.08
11876	-0.24	0.20	-0.08
11881	-0.14	0.14	-0.10
11886	-0.14	0.14	-0.10
11891	-0.07	0.08	-0.12
11896	-0.07	0.08	-0.12
11901	0.00	0.01	-0.13
11906	0.00	0.01	-0.13
11911	0.06	-0.06	-0.11
11916	0.06	-0.06	-0.11
11921	0.07	-0.13	-0.08
11926	0.07	-0.13	-0.08
11931	0.07	-0.20	-0.04
11936	0.07	-0.20	-0.04
11941	0.10	-0.26	0.02
11946	0.10	-0.26	0.02
11951	0.08	-0.23	0.08
11956	0.08	-0.23	0.08
11961	0.06	-0.21	0.08
11966	0.06	-0.21	0.08
11971	0.05	-0.25	0.11
11976	0.05	-0.25	0.11
11981	0.06	-0.26	0.16
11986	0.06	-0.26	0.16
11991	0.04	-0.27	0.22
11996	0.04	-0.27	0.22
12001	-0.05	-0.29	0.26
12006	-0.05	-0.29	0.26
12011	-0.19	-0.35	0.31
12016	-0.19	-0.35	0.31
12021	-0.44	-0.39	0.52
12026	-0.44	-0.39	0.52
12031	-0.92	-0.41	0.82
12036	-0.92	-0.41	0.82
12041	-1.69	-0.33	1.31
12046	-1.69	-0.33	1.31
12051	-2.00	-0.18	1.95
12056	-2.00	-0.18	1.95
12061	-1.99	-0.14	2.00
12066	-1.99	-0.14	2.00
12071	-1.56	-0.30	1.99
12076	-1.56	-0.30	1.99
12081	-0.92	-0.56	2.00
12086	-0.92	-0.56	2.00
12091	-0.21	-0.83	2.00
12096	-0.21	-0.83	2.00
12101	0.53	-1.04	2.00
12106	0.53	-1.04	2.00
12111	0.98	-0.93	1.23
12116	0.98	-0.93	1.23
12121	0.79	-0.45	-0.97
12126	0.79	-0.45	-0.97
12131	-0.09	0.27	-2.00
12136	-0.09	0.27	-2.00
12141	-1.65	1.12	-2.00
12146	-1.65	1.12	-2.00
12151	-2.00	1.43	-1.98
12156	-2.00	1.43	-1.98
12161	-1.26	1.02	-2.00
12166	-1.26	1.02	-2.00
12171	0.13	0.32	-2.00
12176	0.13	0.32	-2.00
12181	-0.05	-0.01	-1.77
12186	-0.05	-0.01	-1.77
12191	-1.35	0.09	0.42
12196	-1.35	0.09	0.42
12201	-1.93	0.45	2.00
12206	-1.93	0.45	2.00
12211	-2.00	0.52	2.00
12216	-2.00	0.52	2.00
12221	-1.96	0.36	1.97
12226	-1.96	0.36	1.97
12231	-1.49	0.09	2.00
12236	-1.49	0.09	2.00
12241	-0.83	-0.31	2.00
12246	-0.83	-0.31	2.00
12251	-0.34	-0.71	2.00
12256	-0.34	-0.71	2.00
12261	-0.24	-0.78	2.00
12266	-0.24	-0.78	2.00
12271	-0.51	-0.58	2.00
12276	-0.51	-0.58	2.00
12281	-0.72	-0.36	1.85
12286	-0.72	-0.36	1.85
12291	-0.72	-0.15	1.01
12296	-0.72	-0.15	1.01
12301	-0.54	0.00	0.29
12306	-0.54	0.00	0.29
12311	-0.32	0.07	-0.06
12316	-0.32	0.07	-0.06
12321	-0.15	0.09	-0.23
12326	-0.15	0.09	-0.23
12331	-0.04	0.04	-0.24
12336	-0.04	0.04	-0.24
12341	0.03	-0.04	-0.11
12346	0.03	-0.04	-0.11
12351	0.08	-0.12	0.14
12356	0.08	-0.12	0.14
12361	0.10	-0.18	0.41
12366	0.10	-0.18	0.41
12371	0.08	-0.20	0.63
12376	0.08	-0.20	0.63
12381	0.06	-0.19	0.77
12386	0.06	-0.19	0.77
12391	0.06	-0.19	0.86
12396	0.06	-0.19	0.86
12401	0.06	-0.18	0.92
12406	0.06	-0.18	0.92
12411	0.05	-0.12	0.90
12416	0.05	-0.12	0.90
12421	0.04	-0.08	0.90
12426	0.04	-0.08	0.90
12431	-0.00	-0.04	0.93
12436	-0.00	-0.04	0.93
12441	-0.12	0.05	0.99
12446	-0.12	0.05	0.99
12451	-0.34	0.15	1.14
12456	-0.34	0.15	1.14
12461	-0.55	0.18	1.33
12466	-0.55	0.18	1.33
12471	-0.71	0.14	1.61
12476	-0.71	0.14	1.61
12481	-0.66	0.07	1.92
12486	-0.66	0.07	1.92
12491	-0.32	0.02	2.00
12496	-0.32	0.02	2.00
12501	0.32	-0.12	2.00
12506	0.32	-0.12	2.00
12511	1.40	-0.53	1.95
12516	1.40	-0.53	1.95
12521	1.66	-0.69	0.86
12526	1.66	-0.69	0.86
12531	0.63	-0.32	-1.15
12536	0.63	-0.32	-1.15
12541	-1.14	0.33	-2.00
12546	-1.14	0.33	-2.00
12551	-1.74	0.60	-2.00
12556	-1.74	0.60	-2.00
12561	-0.74	0.36	-1.98
12566	-0.74	0.36	-1.98
12571	0.24	0.12	-2.00
12576	0.24	0.12	-2.00
12581	-0.56	0.03	-0.87
12586	-0.56	0.03	-0.87
12591	-1.94	0.07	1.48
12596	-1.94	0.07	1.48
12601	-2.00	0.12	2.00
12606	-2.00	0.12	2.00
12611	-1.98	0.01	2.00
12616	-1.98	0.01	2.00
12621	-2.00	-0.18	1.99
12626	-2.00	-0.18	1.99
12631	-1.98	-0.12	2.00
12636	-1.98	-0.12	2.00
12641	-1.60	0.08	2.00
12646	-1.60	0.08	2.00
12651	-1.09	0.26	2.00
12656	-1.09	0.26	2.00
12661	-0.93	0.39	2.00
12666	-0.93	0.39	2.00
12671	-1.04	0.44	2.00
12676	-1.04	0.44	2.00
12681	-1.15	0.39	1.91
12686	-1.15	0.39	1.91
12691	-1.03	0.30	1.06
12696	-1.03	0.30	1.06
12701	-0.75	0.21	0.19
12706	-0.75	0.21	0.19
12711	-0.48	0.10	-0.23
12716	-0.48	0.10	-0.23
12721	-0.31	-0.01	-0.48
12726	-0.31	-0.01	-0.48
12731	-0.17	-0.15	-0.60
12736	-0.17	-0.15	-0.60
12741	-0.09	-0.32	-0.56
12746	-0.09	-0.32	-0.56
12751	0.00	-0.44	-0.42
12756	0.00	-0.44	-0.42
12761	0.09	-0.53	-0.20
12766	0.09	-0.53	-0.20
12771	0.15	-0.62	0.07
12776	0.15	-0.62	0.07
12781	0.22	-0.68	0.33
12786	0.22	-0.68	0.33
12791	0.18	-0.63	0.52
12796	0.18	-0.63	0.52
12801	0.19	-0.48	0.68
12806	0.19	-0.48	0.68
12811	0.26	-0.32	0.84
12816	0.26	-0.32	0.84
12821	0.27	-0.17	0.92
12826	0.27	-0.17	0.92
12831	0.31	-0.02	0.92
12836	0.31	-0.02	0.92
12841	0.39	0.09	0.85
12846	0.39	0.09	0.85
12851	0.38	0.16	0.75
12856	0.38	0.16	0.75
12861	0.46	0.17	0.71
12866	0.46	0.17	0.71
12871	0.48	0.15	0.77
12876	0.48	0.15	0.77
12881	0.40	0.09	0.93
12886	0.40	0.09	0.93
12891	0.30	0.03	1.07
12896	0.30	0.03	1.07
12901	0.31	-0.03	1.15
12906	0.31	-0.03	1.15
12911	0.40	-0.12	1.16
12916	0.40	-0.12	1.16
12921	0.48	-0.16	1.14
12926	0.48	-0.16	1.14
12931	0.45	-0.13	1.11
12936	0.45	-0.13	1.11
12941	0.44	-0.11	1.04
12946	0.44	-0.11	1.04
12951	0.51	-0.09	0.95
12956	0.51	-0.09	0.95
12961	0.51	-0.06	0.87
12966	0.51	-0.06	0.87
12971	0.44	-0.09	0.75
12976	0.44	-0.09	0.75
12981	0.37	-0.18	0.62
12986	0.37	-0.18	0.62
12991	0.30	-0.32	0.50
12996	0.30	-0.32	0.50
13001	0.37	-0.46	0.45
13006	0.37	-0.46	0.45
13011	0.43	-0.55	0.37
13016	0.43	-0.55	0.37
13021	0.46	-0.54	0.35
13026	0.46	-0.54	0.35
13031	0.47	-0.56	0.30
13036	0.47	-0.56	0.30
13041	0.58	-0.60	0.16
13046	0.58	-0.60	0.16
13051	0.63	-0.64	0.04
13056	0.63	-0.64	0.04
13061	0.57	-0.73	0.01
13066	0.57	-0.73	0.01
13071	0.71	-0.87	-0.01
13076	0.71	-0.87	-0.01
13081	0.69	-0.92	0.08
13086	0.69	-0.92	0.08
13091	0.80	-0.91	0.13
13096	0.80	-0.91	0.13
13101	0.63	-0.86	0.19
13106	0.63	-0.86	0.19
13111	0.52	-0.65	0.05
13116	0.52	-0.65	0.05
13121	0.75	-0.43	-0.35
13126	0.75	-0.43	-0.35
13131	0.73	-0.21	-0.62
13136	0.73	-0.21	-0.62
13141	0.59	0.02	-0.65
13146	0.59	0.02	-0.65
13151	0.55	0.17	-0.51
13156	0.55	0.17	-0.51
13161	0.40	0.35	-0.26
13166	0.40	0.35	-0.26
13171	0.37	0.55	0.05
13176	0.37	0.55	0.05
13181	0.41	0.65	0.36
13186	0.41	0.65	0.36
13191	0.39	0.68	0.58
13196	0.39	0.68	0.58
13201	0.33	0.61	0.62
13206	0.33	0.61	0.62
13211	0.31	0.59	0.82
13216	0.31	0.59	0.82
13221	0.25	0.63	0.77
13226	0.25	0.63	0.77
13231	0.03	0.58	0.61
13236	0.03	0.58	0.61
13241	0.14	0.80	1.98
13246	0.14	0.80	1.98
13251	0.52	1.01	2.00
13256	0.52	1.01	2.00
13261	0.53	0.96	1.86
13266	0.53	0.96	1.86
13271	0.25	0.83	1.46
13276	0.25	0.83	1.46
13281	0.41	0.57	1.42
13286	0.41	0.57	1.42
13291	0.38	0.37	1.49
13296	0.38	0.37	1.49
13301	0.38	0.26	1.51
13306	0.38	0.26	1.51
13311	0.43	0.22	1.37
13316	0.43	0.22	1.37
13321	0.48	0.19	1.24
13326	0.48	0.19	1.24
13331	0.40	0.15	1.06
13336	0.40	0.15	1.06
13341	0.25	0.10	0.85
13346	0.25	0.10	0.85
13351	0.29	0.03	0.69
13356	0.29	0.03	0.69
13361	0.48	0.02	0.82
13366	0.48	0.02	0.82
13371	0.70	-0.00	0.92
13376	0.70	-0.00	0.92
13381	0.86	0.00	0.79
13386	0.86	0.00	0.79
13391	0.47	0.06	0.76
13396	0.47	0.06	0.76
13401	0.81	0.10	0.37
13406	0.81	0.10	0.37
13411	1.28	0.27	-0.12
13416	1.28	0.27	-0.12
13421	1.22	0.43	-0.23
13426	1.22	0.43	-0.23
13431	1.18	0.37	-0.11
13436	1.18	0.37	-0.11
13441	0.80	0.44	-0.08
13446	0.80	0.44	-0.08
13451	0.53	0.57	-0.06
13456	0.53	0.57	-0.06
13461	0.42	0.67	0.04
13466	0.42	0.67	0.04
13471	0.36	0.73	0.20
13476	0.36	0.73	0.20
13481	0.34	0.76	0.37
13486	0.34	0.76	0.37
13491	0.27	0.79	0.50
13496	0.27	0.79	0.50
13501	0.14	0.86	0.57
13506	0.14	0.86	0.57
13511	0.08	1.06	0.52
13516	0.08	1.06	0.52
13521	0.25	1.14	0.67
13526	0.25	1.14	0.67
13531	0.31	1.10	0.99
13536	0.31	1.10	0.99
13541	0.33	1.02	1.09
13546	0.33	1.02	1.09
13551	0.30	0.84	1.13
13556	0.30	0.84	1.13
13561	0.22	0.63	1.12
13566	0.22	0.63	1.12
13571	0.19	0.41	1.07
13576	0.19	0.41	1.07
13581	0.25	0.21	0.99
13586	0.25	0.21	0.99
13591	0.31	0.04	0.89
13596	0.31	0.04	0.89
13601	0.33	-0.10	0.80
13606	0.33	-0.10	0.80
13611	0.31	-0.17	0.69
13616	0.31	-0.17	0.69
13621	0.21	-0.16	0.60
13626	0.21	-0.16	0.60
13631	-0.03	-0.05	0.58
13636	-0.03	-0.05	0.58
13641	-0.14	0.08	0.81
13646	-0.14	0.08	0.81
13651	-0.40	0.16	1.38
13656	-0.40	0.16	1.38
13661	-0.87	0.33	2.00
13666	-0.87	0.33	2.00
13671	-1.41	0.66	2.00
13676	-1.41	0.66	2.00
13681	-1.91	1.26	1.99
13686	-1.91	1.26	1.99
13691	-2.00	1.91	2.00
13696	-2.00	1.91	2.00
13701	-2.00	2.00	2.00
13706	-2.00	2.00	2.00
13711	-2.00	1.99	2.00
13716	-2.00	1.99	2.00
13721	-2.00	1.95	2.00
13726	-2.00	1.95	2.00
13731	-2.00	1.44	1.61
13736	-2.00	1.44	1.61
13741	-2.00	1.04	-0.04
13746	-2.00	1.04	-0.04
13751	-1.86	0.29	-1.68
13756	-1.86	0.29	-1.68
13761	-0.88	-1.69	-2.00
13766	-0.88	-1.69	-2.00
13771	0.44	0.10	-0.82
13776	0.44	0.10	-0.82
13781	1.14	0.12	2.00
13786	1.14	0.12	2.00
13791	0.85	0.86	2.00
13796	0.85	0.86	2.00
13801	0.65	1.08	1.81
13806	0.65	1.08	1.81
13811	1.24	0.38	1.27
13816	1.24	0.38	1.27
13821	1.15	-0.03	0.96
13826	1.15	-0.03	0.96
13831	0.53	-0.12	0.90
13836	0.53	-0.12	0.90
13841	0.96	-0.58	0.44
13846	0.96	-0.58	0.44
13851	0.63	-0.79	-0.12
13856	0.63	-0.79	-0.12
13861	0.27	-0.78	-0.58
13866	0.27	-0.78	-0.58
13871	0.33	-0.67	-0.85
13876	0.33	-0.67	-0.85
13881	0.48	-0.48	-0.93
13886	0.48	-0.48	-0.93
13891	0.60	-0.26	-0.93
13896	0.60	-0.26	-0.93
13901	0.73	-0.07	-0.87
13906	0.73	-0.07	-0.87
13911	0.89	0.07	-0.76
13916	0.89	0.07	-0.76
13921	0.99	0.16	-0.66
13926	0.99	0.16	-0.66
13931	0.98	0.20	-0.58
13936	0.98	0.20	-0.58
13941	0.93	0.19	-0.50
13946	0.93	0.19	-0.50
13951	0.91	0.15	-0.40
13956	0.91	0.15	-0.40
13961	0.93	0.10	-0.27
13966	0.93	0.10	-0.27
13971	0.93	0.05	-0.12
13976	0.93	0.05	-0.12
13981	0.91	0.00	0.01
13986	0.91	0.00	0.01
13991	0.90	-0.05	0.10
13996	0.90	-0.05	0.10
14001	0.92	-0.10	0.15
14006	0.92	-0.10	0.15
14011	0.92	-0.15	0.16
14016	0.92	-0.15	0.16
14021	0.89	-0.20	0.14
14026	0.89	-0.20	0.14
14031	0.87	-0.24	0.09
14036	0.87	-0.24	0.09
14041	0.88	-0.26	0.04
14046	0.88	-0.26	0.04
14051	0.87	-0.26	0.01
14056	0.87	-0.26	0.01
14061	0.84	-0.24	-0.03
14066	0.84	-0.24	-0.03
14071	0.83	-0.20	-0.05
14076	0.83	-0.20	-0.05
14081	0.82	-0.14	-0.07
14086	0.82	-0.14	-0.07
14091	0.83	-0.08	-0.11
14096	0.83	-0.08	-0.11
14101	0.86	-0.04	-0.16
14106	0.86	-0.04	-0.16
14111	0.87	-0.02	-0.21
14116	0.87	-0.02	-0.21
14121	0.88	-0.04	-0.28
14126	0.88	-0.04	-0.28
14131	0.86	-0.07	-0.33
14136	0.86	-0.07	-0.33
14141	0.87	-0.12	-0.39
14146	0.87	-0.12	-0.39
14151	0.86	-0.17	-0.47
14156	0.86	-0.17	-0.47
14161	0.84	-0.20	-0.54
14166	0.84	-0.20	-0.54
14171	0.82	-0.20	-0.59
14176	0.82	-0.20	-0.59
14181	0.84	-0.17	-0.64
14186	0.84	-0.17	-0.64
14191	0.87	-0.15	-0.70
14196	0.87	-0.15	-0.70
14201	0.89	-0.13	-0.78
14206	0.89	-0.13	-0.78
14211	0.91	-0.12	-0.87
14216	0.91	-0.12	-0.87
14221	0.93	-0.12	-1.00
14226	0.93	-0.12	-1.00
14231	0.91	-0.12	-1.15
14236	0.91	-0.12	-1.15
14241	0.89	-0.12	-1.26
14246	0.89	-0.12	-1.26
14251	0.86	-0.11	-1.33
14256	0.86	-0.11	-1.33
14261	0.88	-0.10	-1.39
14266	0.88	-0.10	-1.39
14271	0.93	-0.10	-1.46
14276	0.93	-0.10	-1.46
14281	0.89	-0.09	-1.55
14286	0.89	-0.09	-1.55
14291	0.67	-0.05	-1.60
14296	0.67	-0.05	-1.60
14301	0.31	0.05	-1.55
14306	0.31	0.05	-1.55
14311	-0.13	0.19	-1.34
14316	-0.13	0.19	-1.34
14321	-0.76	0.35	-0.83
14326	-0.76	0.35	-0.83
14331	-1.35	0.49	0.33
14336	-1.35	0.49	0.33
14341	-1.77	0.73	1.98
14346	-1.77	0.73	1.98
14351	-1.84	1.24	2.00
14356	-1.84	1.24	2.00
14361	-1.26	1.87	1.97
14366	-1.26	1.87	1.97
14371	-1.12	1.84	2.00
14376	-1.12	1.84	2.00
14381	-2.00	1.64	2.00
14386	-2.00	1.64	2.00
14391	-2.00	1.26	1.88
14396	-2.00	1.26	1.88
14401	-1.90	0.42	-0.20
14406	-1.90	0.42	-0.20
14411	-0.31	0.80	-1.42
14416	-0.31	0.80	-1.42
14421	2.00	0.37	2.00
14426	2.00	0.37	2.00
14431	1.66	-0.72	1.13
14436	1.66	-0.72	1.13
14441	1.02	0.75	-0.78
14446	1.02	0.75	-0.78
14451	0.92	0.20	0.56
14456	0.92	0.20	0.56
14461	0.92	-0.22	0.53
14466	0.92	-0.22	0.53
14471	1.10	0.19	0.41
14476	1.10	0.19	0.41
14481	1.04	0.06	0.05
14486	1.04	0.06	0.05
14491	0.84	-0.10	-0.25
14496	0.84	-0.10	-0.25
14501	0.67	-0.05	-0.44
14506	0.67	-0.05	-0.44
14511	0.61	0.10	-0.61
14516	0.61	0.10	-0.61
14521	0.56	-0.06	-0.77
14526	0.56	-0.06	-0.77
14531	0.56	-0.24	-0.81
14536	0.56	-0.24	-0.81
14541	0.64	-0.17	-0.83
14546	0.64	-0.17	-0.83
14551	0.78	0.01	-0.83
14556	0.78	0.01	-0.83
14561	0.87	0.16	-0.74
14566	0.87	0.16	-0.74
14571	0.91	0.24	-0.63
14576	0.91	0.24	-0.63
14581	0.95	0.26	-0.55
14586	0.95	0.26	-0.55
14591	1.00	0.22	-0.49
14596	1.00	0.22	-0.49
14601	1.02	0.14	-0.49
14606	1.02	0.14	-0.49
14611	1.01	0.02	-0.54
14616	1.01	0.02	-0.54
14621	1.02	-0.11	-0.61
14626	1.02	-0.11	-0.61
14631	0.99	-0.21	-0.70
14636	0.99	-0.21	-0.70
14641	0.95	-0.28	-0.78
14646	0.95	-0.28	-0.78
14651	0.93	-0.30	-0.81
14656	0.93	-0.30	-0.81
14661	0.90	-0.28	-0.79
14666	0.90	-0.28	-0.79
14671	0.89	-0.25	-0.73
14676	0.89	-0.25	-0.73
14681	0.82	-0.20	-0.65
14686	0.82	-0.20	-0.65
14691	0.71	-0.14	-0.54
14696	0.71	-0.14	-0.54
14701	0.60	-0.06	-0.41
14706	0.60	-0.06	-0.41
14711	0.51	0.04	-0.29
14716	0.51	0.04	-0.29
14721	0.47	0.13	-0.19
14726	0.47	0.13	-0.19
14731	0.46	0.19	-0.09
14736	0.46	0.19	-0.09
14741	0.39	0.25	-0.02
14746	0.39	0.25	-0.02
14751	0.29	0.30	0.05
14756	0.29	0.30	0.05
14761	0.21	0.36	0.14
14766	0.21	0.36	0.14
14771	0.07	0.43	0.27
14776	0.07	0.43	0.27
14781	-0.06	0.49	0.46
14786	-0.06	0.49	0.46
14791	-0.23	0.52	0.74
14796	-0.23	0.52	0.74
14801	-0.52	0.50	1.28
14806	-0.52	0.50	1.28
14811	-0.97	0.47	2.00
14816	-0.97	0.47	2.00
14821	-1.29	0.51	2.00
14826	-1.29	0.51	2.00
14831	-1.65	0.75	1.99
14836	-1.65	0.75	1.99
14841	-2.00	1.43	2.00
14846	-2.00	1.43	2.00
14851	-2.00	2.00	2.00
14856	-2.00	2.00	2.00
14861	-1.99	2.00	2.00
14866	-1.99	2.00	2.00
14871	-2.00	1.98	1.98
14876	-2.00	1.98	1.98
14881	-2.00	1.69	0.70
14886	-2.00	1.69	0.70
14891	-1.98	0.96	-1.64
14896	-1.98	0.96	-1.64
14901	-0.76	0.00	-1.85
14906	-0.76	0.00	-1.85
14911	1.68	-0.54	1.57
14916	1.68	-0.54	1.57
14921	1.69	0.29	2.00
14926	1.69	0.29	2.00
14931	0.95	-0.14	0.32
14936	0.95	-0.14	0.32
14941	0.98	0.42	-1.06
14946	0.98	0.42	-1.06
14951	0.66	-0.01	-0.68
14956	0.66	-0.01	-0.68
14961	0.88	-0.63	-0.05
14966	0.88	-0.63	-0.05
14971	1.22	-0.29	0.17
14976	1.22	-0.29	0.17
14981	0.89	-0.13	0.10
14986	0.89	-0.13	0.10
14991	0.68	-0.11	-0.09
14996	0.68	-0.11	-0.09
15001	0.67	-0.05	-0.27
15006	0.67	-0.05	-0.27
15011	0.68	0.00	-0.36
15016	0.68	0.00	-0.36
15021	0.70	0.05	-0.40
15026	0.70	0.05	-0.40
15031	0.76	0.07	-0.41
15036	0.76	0.07	-0.41
15041	0.85	0.04	-0.40
15046	0.85	0.04	-0.40
15051	0.90	-0.04	-0.35
15056	0.90	-0.04	-0.35
15061	0.88	-0.15	-0.36
15066	0.88	-0.15	-0.36
15071	0.97	-0.20	-0.42
15076	0.97	-0.20	-0.42
15081	1.04	-0.21	-0.48
15086	1.04	-0.21	-0.48
15091	1.04	-0.22	-0.57
15096	1.04	-0.22	-0.57
15101	1.03	-0.23	-0.68
15106	1.03	-0.23	-0.68
15111	1.03	-0.24	-0.82
15116	1.03	-0.24	-0.82
15121	1.02	-0.23	-0.97
15126	1.02	-0.23	-0.97
15131	0.98	-0.21	-1.10
15136	0.98	-0.21	-1.10
15141	0.90	-0.18	-1.20
15146	0.90	-0.18	-1.20
15151	0.83	-0.12	-1.24
15156	0.83	-0.12	-1.24
15161	0.85	-0.08	-1.15
15166	0.85	-0.08	-1.15
15171	0.80	-0.06	-1.11
15176	0.80	-0.06	-1.11
15181	0.61	-0.04	-1.15
15186	0.61	-0.04	-1.15
15191	0.47	-0.01	-1.04
15196	0.47	-0.01	-1.04
15201	0.34	0.04	-0.89
15206	0.34	0.04	-0.89
15211	0.16	0.10	-0.69
15216	0.16	0.10	-0.69
15221	0.00	0.16	-0.45
15226	0.00	0.16	-0.45
15231	-0.13	0.23	-0.19
15236	-0.13	0.23	-0.19
15241	-0.27	0.33	0.05
15246	-0.27	0.33	0.05
15251	-0.39	0.45	0.28
15256	-0.39	0.45	0.28
15261	-0.52	0.58	0.50
15266	-0.52	0.58	0.50
15271	-0.68	0.69	0.77
15276	-0.68	0.69	0.77
15281	-0.91	0.74	1.21
15286	-0.91	0.74	1.21
15291	-1.27	0.73	1.94
15296	-1.27	0.73	1.94
15301	-1.70	0.79	2.00
15306	-1.70	0.79	2.00
15311	-2.00	1.21	1.99
15316	-2.00	1.21	1.99
15321	-2.00	1.87	2.00
15326	-2.00	1.87	2.00
15331	-1.99	2.00	2.00
15336	-1.99	2.00	2.00
15341	-2.00	2.00	2.00
15346	-2.00	2.00	2.00
15351	-2.00	2.00	1.98
15356	-2.00	2.00	1.98
15361	-2.00	1.86	0.75
15366	-2.00	1.86	0.75
15371	-2.00	1.54	-1.43
15376	-2.00	1.54	-1.43
15381	-1.57	0.48	-2.00
15386	-1.57	0.48	-2.00
15391	1.24	1.58	0.50
15396	1.24	1.58	0.50
15401	1.68	-0.10	2.00
15406	1.68	-0.10	2.00
15411	1.26	-1.39	-0.26
15416	1.26	-1.39	-0.26
15421	0.67	0.01	-2.00
15426	0.67	0.01	-2.00
15431	0.73	0.61	-0.50
15436	0.73	0.61	-0.50
15441	0.89	0.08	-0.16
15446	0.89	0.08	-0.16
15451	1.29	0.30	-0.75
15456	1.29	0.30	-0.75
15461	1.11	0.06	-0.61
15466	1.11	0.06	-0.61
15471	0.81	-0.31	-0.43
15476	0.81	-0.31	-0.43
15481	0.63	-0.43	-0.46
15486	0.63	-0.43	-0.46
15491	0.60	-0.44	-0.41
15496	0.60	-0.44	-0.41
15501	0.61	-0.38	-0.22
15506	0.61	-0.38	-0.22
15511	0.65	-0.25	0.00
15516	0.65	-0.25	0.00
15521	0.76	-0.12	0.19
15526	0.76	-0.12	0.19
15531	0.88	-0.00	0.33
15536	0.88	-0.00	0.33
15541	0.97	0.07	0.40
15546	0.97	0.07	0.40
15551	1.00	0.08	0.38
15556	1.00	0.08	0.38
15561	1.00	0.03	0.26
15566	1.00	0.03	0.26
15571	0.98	-0.04	0.05
15576	0.98	-0.04	0.05
15581	0.98	-0.13	-0.18
15586	0.98	-0.13	-0.18
15591	1.03	-0.22	-0.42
15596	1.03	-0.22	-0.42
15601	1.06	-0.31	-0.68
15606	1.06	-0.31	-0.68
15611	1.01	-0.35	-0.93
15616	1.01	-0.35	-0.93
15621	0.92	-0.33	-1.17
15626	0.92	-0.33	-1.17
15631	0.85	-0.26	-1.38
15636	0.85	-0.26	-1.38
15641	0.80	-0.16	-1.54
15646	0.80	-0.16	-1.54
15651	0.75	-0.06	-1.64
15656	0.75	-0.06	-1.64
15661	0.65	0.03	-1.65
15666	0.65	0.03	-1.65
15671	0.53	0.11	-1.53
15676	0.53	0.11	-1.53
15681	0.34	0.19	-1.35
15686	0.34	0.19	-1.35
15691	0.10	0.26	-1.12
15696	0.10	0.26	-1.12
15701	-0.13	0.35	-0.83
15706	-0.13	0.35	-0.83
15711	-0.37	0.45	-0.48
15716	-0.37	0.45	-0.48
15721	-0.57	0.54	-0.05
15726	-0.57	0.54	-0.05
15731	-0.66	0.60	0.44
15736	-0.66	0.60	0.44
15741	-0.65	0.66	0.98
15746	-0.65	0.66	0.98
15751	-0.61	0.68	1.57
15756	-0.61	0.68	1.57
15761	-0.57	0.64	2.00
15766	-0.57	0.64	2.00
15771	-0.49	0.58	2.00
15776	-0.49	0.58	2.00
15781	-0.44	0.51	1.99
15786	-0.44	0.51	1.99
15791	-0.63	0.46	2.00
15796	-0.63	0.46	2.00
15801	-1.08	0.43	2.00
15806	-1.08	0.43	2.00
15811	-1.81	0.50	2.00
15816	-1.81	0.50	2.00
15821	-2.00	0.64	2.00
15826	-2.00	0.64	2.00
15831	-2.00	0.87	2.00
15836	-2.00	0.87	2.00
15841	-1.99	1.08	2.00
15846	-1.99	1.08	2.00
15851	-2.00	1.15	1.81
15856	-2.00	1.15	1.81
15861	-2.00	1.13	0.58
15866	-2.00	1.13	0.58
15871	-2.00	1.07	-0.88
15876	-2.00	1.07	-0.88
15881	-1.34	-0.45	-1.71
15886	-1.34	-0.45	-1.71
15891	1.07	1.38	0.87
15896	1.07	1.38	0.87
15901	1.17	-0.56	1.37
15906	1.17	-0.56	1.37
15911	0.97	-0.87	-1.90
15916	0.97	-0.87	-1.90
15921	0.72	0.78	-0.77
15926	0.72	0.78	-0.77
15931	0.67	0.36	0.62
15936	0.67	0.36	0.62
15941	0.91	-0.13	0.10
15946	0.91	-0.13	0.10
15951	1.11	-0.12	-0.58
15956	1.11	-0.12	-0.58
15961	1.02	-0.13	-0.60
15966	1.02	-0.13	-0.60
15971	0.75	0.03	-0.58
15976	0.75	0.03	-0.58
15981	0.73	0.05	-0.71
15986	0.73	0.05	-0.71
15991	0.56	0.53	-1.07
15996	0.56	0.53	-1.07
16001	0.66	0.63	-1.23
16006	0.66	0.63	-1.23
16011	0.75	0.42	-1.12
16016	0.75	0.42	-1.12
16021	0.77	0.30	-1.00
16026	0.77	0.30	-1.00
16031	0.84	0.16	-0.81
16036	0.84	0.16	-0.81
16041	0.92	-0.02	-0.56
16046	0.92	-0.02	-0.56
16051	0.95	-0.21	-0.27
16056	0.95	-0.21	-0.27
16061	0.95	-0.40	-0.01
16066	0.95	-0.40	-0.01
16071	0.91	-0.55	0.12
16076	0.91	-0.55	0.12
16081	0.88	-0.62	0.05
16086	0.88	-0.62	0.05
16091	0.90	-0.60	-0.23
16096	0.90	-0.60	-0.23
16101	0.89	-0.48	-0.58
16106	0.89	-0.48	-0.58
16111	0.85	-0.33	-0.86
16116	0.85	-0.33	-0.86
16121	0.78	-0.19	-1.07
16126	0.78	-0.19	-1.07
16131	0.66	-0.06	-1.16
16136	0.66	-0.06	-1.16
16141	0.38	0.04	-1.12
16146	0.38	0.04	-1.12
16151	0.00	0.12	-0.94
16156	0.00	0.12	-0.94
16161	-0.34	0.22	-0.64
16166	-0.34	0.22	-0.64
16171	-0.69	0.33	-0.30
16176	-0.69	0.33	-0.30
16181	-1.03	0.47	0.10
16186	-1.03	0.47	0.10
16191	-1.25	0.60	0.69
16196	-1.25	0.60	0.69
16201	-1.37	0.72	1.62
16206	-1.37	0.72	1.62
16211	-1.45	0.84	2.00
16216	-1.45	0.84	2.00
16221	-1.36	1.08	2.00
16226	-1.36	1.08	2.00
16231	-1.59	1.52	1.99
16236	-1.59	1.52	1.99
16241	-1.86	1.68	2.00
16246	-1.86	1.68	2.00
16251	-2.00	1.87	2.00
16256	-2.00	1.87	2.00
16261	-2.00	2.00	2.00
16266	-2.00	2.00	2.00
16271	-2.00	2.00	2.00
16276	-2.00	2.00	2.00
16281	-2.00	1.86	1.42
16286	-2.00	1.86	1.42
16291	-2.00	1.38	-0.09
16296	-2.00	1.38	-0.09
16301	-2.00	0.79	-1.05
16306	-2.00	0.79	-1.05
16311	-1.69	-0.37	-1.87
16316	-1.69	-0.37	-1.87
16321	1.01	1.29	-1.84
16326	1.01	1.29	-1.84
16331	1.49	1.09	1.05
16336	1.49	1.09	1.05
16341	0.93	-0.51	2.00
16346	0.93	-0.51	2.00
16351	0.92	-0.48	-0.12
16356	0.92	-0.48	-0.12
16361	0.70	0.34	-1.78
16366	0.70	0.34	-1.78
16371	0.74	-0.06	-0.87
16376	0.74	-0.06	-0.87
16381	1.12	-0.12	0.04
16386	1.12	-0.12	0.04
16391	1.23	0.22	0.26
16396	1.23	0.22	0.26
16401	1.18	-0.07	0.36
16406	1.18	-0.07	0.36
16411	1.00	-0.33	0.30
16416	1.00	-0.33	0.30
16421	0.90	-0.24	0.05
16426	0.90	-0.24	0.05
16431	0.86	0.06	-0.19
16436	0.86	0.06	-0.19
16441	0.86	0.06	-0.19
16446	0.86	0.06	-0.19
16451	0.88	-0.09	-0.22
16456	0.88	-0.09	-0.22
16461	0.91	-0.15	-0.39
16466	0.91	-0.15	-0.39
16471	0.96	-0.20	-0.62
16476	0.96	-0.20	-0.62
16481	1.05	-0.24	-0.84
16486	1.05	-0.24	-0.84
16491	1.09	-0.27	-1.06
16496	1.09	-0.27	-1.06
16501	0.98	-0.23	-1.26
16506	0.98	-0.23	-1.26
16511	0.85	-0.16	-1.42
16516	0.85	-0.16	-1.42
16521	0.69	-0.08	-1.44
16526	0.69	-0.08	-1.44
16531	0.54	-0.00	-1.30
16536	0.54	-0.00	-1.30
16541	0.40	0.05	-1.05
16546	0.40	0.05	-1.05
16551	0.25	0.09	-0.78
16556	0.25	0.09	-0.78
16561	0.04	0.12	-0.37
16566	0.04	0.12	-0.37
16571	-0.13	0.16	0.14
16576	-0.13	0.16	0.14
16581	-0.23	0.22	0.59
16586	-0.23	0.22	0.59
16591	-0.28	0.26	1.03
16596	-0.28	0.26	1.03
16601	-0.31	0.31	1.57
16606	-0.31	0.31	1.57
16611	-0.35	0.38	2.00
16616	-0.35	0.38	2.00
16621	-0.27	0.44	2.00
16626	-0.27	0.44	2.00
16631	-0.16	0.46	1.99
16636	-0.16	0.46	1.99
16641	-0.41	0.46	2.00
16646	-0.41	0.46	2.00
16651	-0.87	0.47	2.00
16656	-0.87	0.47	2.00
16661	-1.48	0.58	2.00
16666	-1.48	0.58	2.00
16671	-2.00	0.81	2.00
16676	-2.00	0.81	2.00
16681	-2.00	1.05	2.00
16686	-2.00	1.05	2.00
16691	-1.99	1.22	2.00
16696	-1.99	1.22	2.00
16701	-2.00	1.28	1.97
16706	-2.00	1.28	1.97
16711	-2.00	1.21	1.09
16716	-2.00	1.21	1.09
16721	-1.97	0.56	-0.78
16726	-1.97	0.56	-0.78
16731	-0.27	0.85	-2.00
16736	-0.27	0.85	-2.00
16741	1.39	1.32	1.21
16746	1.39	1.32	1.21
16751	1.68	-0.99	2.00
16756	1.68	-0.99	2.00
16761	0.99	-0.21	-0.56
16766	0.99	-0.21	-0.56
16771	0.73	0.86	-1.07
16776	0.73	0.86	-1.07
16781	0.72	-0.08	0.05
16786	0.72	-0.08	0.05
16791	1.08	-0.32	0.05
16796	1.08	-0.32	0.05
16801	1.26	-0.19	0.01
16806	1.26	-0.19	0.01
16811	1.07	-0.06	-0.15
16816	1.07	-0.06	-0.15
16821	0.81	0.05	-0.54
16826	0.81	0.05	-0.54
16831	0.75	0.06	-0.50
16836	0.75	0.06	-0.50
16841	0.75	0.00	-0.19
16846	0.75	0.00	-0.19
16851	0.76	0.08	-0.05
16856	0.76	0.08	-0.05
16861	0.79	0.20	-0.24
16866	0.79	0.20	-0.24
16871	0.85	0.08	-0.44
16876	0.85	0.08	-0.44
16881	0.89	-0.07	-0.47
16886	0.89	-0.07	-0.47
16891	0.91	-0.07	-0.39
16896	0.91	-0.07	-0.39
16901	0.92	-0.01	-0.29
16906	0.92	-0.01	-0.29
16911	0.93	0.01	-0.16
16916	0.93	0.01	-0.16
16921	0.94	0.00	-0.22
16926	0.94	0.00	-0.22
16931	0.92	-0.02	-0.34
16936	0.92	-0.02	-0.34
16941	0.88	-0.02	-0.38
16946	0.88	-0.02	-0.38
16951	0.89	-0.00	-0.42
16956	0.89	-0.00	-0.42
16961	0.94	-0.05	-0.51
16966	0.94	-0.05	-0.51
16971	0.98	-0.14	-0.67
16976	0.98	-0.14	-0.67
16981	0.98	-0.21	-0.93
16986	0.98	-0.21	-0.93
16991	0.97	-0.68	-1.39
16996	0.97	-0.68	-1.39
17001	0.52	-0.60	-1.98
17006	0.52	-0.60	-1.98
17011	0.08	-0.24	-2.00
17016	0.08	-0.24	-2.00
17021	-0.11	0.17	-1.99
17026	-0.11	0.17	-1.99
17031	-0.40	0.64	-2.00
17036	-0.40	0.64	-2.00
17041	-0.88	1.04	-2.00
17046	-0.88	1.04	-2.00
17051	-1.55	1.24	-2.00
17056	-1.55	1.24	-2.00
17061	-2.00	1.39	-1.74
17066	-2.00	1.39	-1.74
17071	-2.00	1.42	-0.64
17076	-2.00	1.42	-0.64
17081	-1.99	1.28	0.66
17086	-1.99	1.28	0.66
17091	-2.00	1.13	1.86
17096	-2.00	1.13	1.86
17101	-2.00	0.98	2.00
17106	-2.00	0.98	2.00
17111	-1.67	0.65	1.99
17116	-1.67	0.65	1.99
17121	-1.49	0.47	1.99
17126	-1.49	0.47	1.99
17131	-1.72	0.46	2.00
17136	-1.72	0.46	2.00
17141	-1.21	0.32	2.00
17146	-1.21	0.32	2.00
17151	-1.47	0.28	2.00
17156	-1.47	0.28	2.00
17161	-2.00	0.33	2.00
17166	-2.00	0.33	2.00
17171	-2.00	0.41	2.00
17176	-2.00	0.41	2.00
17181	-1.99	0.48	2.00
17186	-1.99	0.48	2.00
17191	-2.00	0.55	1.98
17196	-2.00	0.55	1.98
17201	-2.00	0.63	1.73
17206	-2.00	0.63	1.73
17211	-2.00	0.72	1.28
17216	-2.00	0.72	1.28
17221	-2.00	0.78	0.62
17226	-2.00	0.78	0.62
17231	-1.96	0.72	-0.41
17236	-1.96	0.72	-0.41
17241	-1.30	-0.14	-2.00
17246	-1.30	-0.14	-2.00
17251	0.39	1.65	-0.05
17256	0.39	1.65	-0.05
17261	1.80	1.20	2.00
17266	1.80	1.20	2.00
17271	1.18	0.29	1.95
17276	1.18	0.29	1.95
17281	0.69	-0.03	0.47
17286	0.69	-0.03	0.47
17291	0.93	-0.29	-0.59
17296	0.93	-0.29	-0.59
17301	1.13	-0.27	-0.42
17306	1.13	-0.27	-0.42
17311	1.25	0.01	-0.15
17316	1.25	0.01	-0.15
17321	1.25	0.10	-0.17
17326	1.25	0.10	-0.17
17331	1.05	0.05	-0.52
17336	1.05	0.05	-0.52
17341	0.87	0.06	-1.17
17346	0.87	0.06	-1.17
17351	0.88	0.03	-1.74
17356	0.88	0.03	-1.74
17361	0.99	-0.04	-1.84
17366	0.99	-0.04	-1.84
17371	0.93	-0.06	-1.82
17376	0.93	-0.06	-1.82
17381	0.80	-0.12	-1.76
17386	0.80	-0.12	-1.76
17391	0.72	-0.22	-1.57
17396	0.72	-0.22	-1.57
17401	0.62	-0.31	-1.30
17406	0.62	-0.31	-1.30
17411	0.46	-0.36	-1.04
17416	0.46	-0.36	-1.04
17421	0.26	-0.36	-0.82
17426	0.26	-0.36	-0.82
17431	-0.03	-0.31	-0.55
17436	-0.03	-0.31	-0.55
17441	-0.32	-0.19	-0.20
17446	-0.32	-0.19	-0.20
17451	-0.57	-0.01	0.30
17456	-0.57	-0.01	0.30
17461	-0.70	0.23	0.81
17466	-0.70	0.23	0.81
17471	-0.74	0.55	1.21
17476	-0.74	0.55	1.21
17481	-0.89	1.03	1.54
17486	-0.89	1.03	1.54
17491	-1.13	1.64	1.83
17496	-1.13	1.64	1.83
17501	-1.23	2.00	2.00
17506	-1.23	2.00	2.00
17511	-1.02	2.00	2.00
17516	-1.02	2.00	2.00
17521	-0.77	1.99	1.97
17526	-0.77	1.99	1.97
17531	-0.63	2.00	1.62
17536	-0.63	2.00	1.62
17541	-0.94	2.00	1.07
17546	-0.94	2.00	1.07
17551	-1.41	2.00	0.67
17556	-1.41	2.00	0.67
17561	-1.78	2.00	0.58
17566	-1.78	2.00	0.58
17571	-2.00	1.71	0.67
17576	-2.00	1.71	0.67
17581	-2.00	1.02	0.69
17586	-2.00	1.02	0.69
17591	-1.85	0.42	0.60
17596	-1.85	0.42	0.60
17601	-1.51	-0.21	0.33
17606	-1.51	-0.21	0.33
17611	-1.14	-0.95	0.01
17616	-1.14	-0.95	0.01
17621	-0.31	-1.98	-0.50
17626	-0.31	-1.98	-0.50
17631	1.80	-1.38	-0.28
17636	1.80	-1.38	-0.28
17641	2.00	1.21	0.13
17646	2.00	1.21	0.13
17651	1.97	1.63	-0.55
17656	1.97	1.63	-0.55
17661	1.71	0.21	-0.66
17666	1.71	0.21	-0.66
17671	1.24	-1.07	-0.50
17676	1.24	-1.07	-0.50
17681	1.11	-1.62	-0.29
17686	1.11	-1.62	-0.29
17691	0.75	-1.88	0.05
17696	0.75	-1.88	0.05
17701	0.28	-2.00	0.46
17706	0.28	-2.00	0.46
17711	-0.14	-1.99	0.89
17716	-0.14	-1.99	0.89
17721	-0.32	-1.82	1.12
17726	-0.32	-1.82	1.12
17731	-0.43	-1.44	1.11
17736	-0.43	-1.44	1.11
17741	-0.65	-0.75	0.99
17746	-0.65	-0.75	0.99
17751	-0.93	0.06	0.91
17756	-0.93	0.06	0.91
17761	-1.09	0.82	1.00
17766	-1.09	0.82	1.00
17771	-1.01	1.54	1.07
17776	-1.01	1.54	1.07
17781	-0.94	2.00	1.02
17786	-0.94	2.00	1.02
17791	-0.75	2.00	0.79
17796	-0.75	2.00	0.79
17801	-0.51	1.99	0.65
17806	-0.51	1.99	0.65
17811	-0.45	2.00	0.70
17816	-0.45	2.00	0.70
17821	-0.57	2.00	0.75
17826	-0.57	2.00	0.75
17831	-0.76	2.00	0.58
17836	-0.76	2.00	0.58
17841	-0.92	2.00	0.22
17846	-0.92	2.00	0.22
17851	-1.35	2.00	-0.09
17856	-1.35	2.00	-0.09
17861	-1.89	1.91	-0.32
17866	-1.89	1.91	-0.32
17871	-2.00	0.84	-0.63
17876	-2.00	0.84	-0.63
17881	-2.00	-0.57	-0.84
17886	-2.00	-0.57	-0.84
17891	-1.04	-1.86	-0.92
17896	-1.04	-1.86	-0.92
17901	1.37	-1.94	-0.84
17906	1.37	-1.94	-0.84
17911	2.00	0.81	0.32
17916	2.00	0.81	0.32
17921	1.99	2.00	1.28
17926	1.99	2.00	1.28
17931	1.76	0.75	1.07
17936	1.76	0.75	1.07
17941	1.21	-1.12	0.99
17946	1.21	-1.12	0.99
17951	0.77	-1.98	1.28
17956	0.77	-1.98	1.28
17961	0.34	-2.00	1.35
17966	0.34	-2.00	1.35
17971	-0.05	-1.99	1.41
17976	-0.05	-1.99	1.41
17981	-0.06	-2.00	1.51
17986	-0.06	-2.00	1.51
17991	-0.26	-1.99	1.50
17996	-0.26	-1.99	1.50
18001	-0.64	-1.61	1.23
18006	-0.64	-1.61	1.23
18011	-0.93	-0.65	0.75
18016	-0.93	-0.65	0.75
18021	-1.19	0.28	0.28
18026	-1.19	0.28	0.28
18031	-1.45	1.02	0.04
18036	-1.45	1.02	0.04
18041	-1.54	1.68	0.07
18046	-1.54	1.68	0.07
18051	-1.40	2.00	0.35
18056	-1.40	2.00	0.35
18061	-0.97	2.00	0.50
18066	-0.97	2.00	0.50
18071	-0.48	1.99	0.50
18076	-0.48	1.99	0.50
18081	-0.28	2.00	0.55
18086	-0.28	2.00	0.55
18091	-0.41	2.00	0.52
18096	-0.41	2.00	0.52
18101	-0.81	2.00	0.43
18106	-0.81	2.00	0.43
18111	-1.30	2.00	0.32
18116	-1.30	2.00	0.32
18121	-1.88	2.00	0.34
18126	-1.88	2.00	0.34
18131	-2.00	1.99	0.53
18136	-2.00	1.99	0.53
18141	-2.00	1.46	0.76
18146	-2.00	1.46	0.76
18151	-2.00	0.25	0.87
18156	-2.00	0.25	0.87
18161	-2.00	-0.82	0.90
18166	-2.00	-0.82	0.90
18171	-0.94	-1.77	1.37
18176	-0.94	-1.77	1.37
18181	0.38	-2.00	0.83
18186	0.38	-2.00	0.83
18191	2.00	-0.71	1.30
18196	2.00	-0.71	1.30
18201	2.00	1.67	1.21
18206	2.00	1.67	1.21
18211	1.83	0.89	0.41
18216	1.83	0.89	0.41
18221	1.20	-0.82	0.50
18226	1.20	-0.82	0.50
18231	0.86	-1.67	0.33
18236	0.86	-1.67	0.33
18241	0.63	-1.96	0.18
18246	0.63	-1.96	0.18
18251	0.21	-2.00	0.32
18256	0.21	-2.00	0.32
18261	-0.12	-1.88	0.59
18266	-0.12	-1.88	0.59
18271	-0.31	-1.42	0.79
18276	-0.31	-1.42	0.79
18281	-0.57	-0.62	0.89
18286	-0.57	-0.62	0.89
18291	-0.85	0.26	0.86
18296	-0.85	0.26	0.86
18301	-1.00	1.08	0.67
18306	-1.00	1.08	0.67
18311	-1.05	1.79	0.55
18316	-1.05	1.79	0.55
18321	-1.03	2.00	0.57
18326	-1.03	2.00	0.57
18331	-0.89	2.00	0.54
18336	-0.89	2.00	0.54
18341	-0.71	1.99	0.52
18346	-0.71	1.99	0.52
18351	-0.86	2.00	0.71
18356	-0.86	2.00	0.71
18361	-0.89	2.00	0.72
18366	-0.89	2.00	0.72
18371	-1.10	2.00	0.53
18376	-1.10	2.00	0.53
18381	-1.59	2.00	0.45
18386	-1.59	2.00	0.45
18391	-2.00	2.00	0.48
18396	-2.00	2.00	0.48
18401	-2.00	1.57	0.58
18406	-2.00	1.57	0.58
18411	-1.99	0.14	0.75
18416	-1.99	0.14	0.75
18421	-2.00	-0.99	0.89
18426	-2.00	-0.99	0.89
18431	-0.28	-1.95	1.52
18436	-0.28	-1.95	1.52
18441	-1.06	-1.82	1.97
18446	-1.06	-1.82	1.97
18451	1.14	1.07	0.63
18456	1.14	1.07	0.63
18461	2.00	2.00	0.18
18466	2.00	2.00	0.18
18471	1.90	1.39	0.84
18476	1.90	1.39	0.84
18481	1.23	-0.23	0.52
18486	1.23	-0.23	0.52
18491	0.86	-1.32	0.07
18496	0.86	-1.32	0.07
18501	0.62	-1.87	0.11
18506	0.62	-1.87	0.11
18511	0.42	-2.00	0.28
18516	0.42	-2.00	0.28
18521	0.08	-2.00	0.51
18526	0.08	-2.00	0.51
18531	-0.21	-1.94	0.67
18536	-0.21	-1.94	0.67
18541	-0.49	-1.45	0.67
18546	-0.49	-1.45	0.67
18551	-0.82	-0.56	0.50
18556	-0.82	-0.56	0.50
18561	-1.05	0.34	0.35
18566	-1.05	0.34	0.35
18571	-1.17	1.12	0.35
18576	-1.17	1.12	0.35
18581	-1.28	1.85	0.57
18586	-1.28	1.85	0.57
18591	-1.40	2.00	0.80
18596	-1.40	2.00	0.80
18601	-1.22	2.00	0.84
18606	-1.22	2.00	0.84
18611	-1.47	2.00	0.97
18616	-1.47	2.00	0.97
18621	-1.51	2.00	1.25
18626	-1.51	2.00	1.25
18631	-1.32	2.00	1.37
18636	-1.32	2.00	1.37
18641	-1.82	2.00	1.18
18646	-1.82	2.00	1.18
18651	-2.00	1.99	0.74
18656	-2.00	1.99	0.74
18661	-2.00	1.06	0.46
18666	-2.00	1.06	0.46
18671	-1.99	-0.73	0.59
18676	-1.99	-0.73	0.59
18681	-2.00	-1.61	0.86
18686	-2.00	-1.61	0.86
18691	-1.86	-2.00	1.44
18696	-1.86	-2.00	1.44
18701	-0.66	-1.92	1.56
18706	-0.66	-1.92	1.56
18711	1.08	0.01	1.08
18716	1.08	0.01	1.08
18721	1.40	2.00	0.54
18726	1.40	2.00	0.54
18731	1.91	2.00	-0.23
18736	1.91	2.00	-0.23
18741	1.05	1.54	-0.05
18746	1.05	1.54	-0.05
18751	0.63	0.43	0.25
18756	0.63	0.43	0.25
18761	0.61	-0.37	0.37
18766	0.61	-0.37	0.37
18771	0.51	-0.85	0.68
18776	0.51	-0.85	0.68
18781	0.50	-1.09	0.95
18786	0.50	-1.09	0.95
18791	0.59	-1.15	1.14
18796	0.59	-1.15	1.14
18801	0.65	-1.06	1.14
18806	0.65	-1.06	1.14
18811	0.68	-0.84	0.95
18816	0.68	-0.84	0.95
18821	0.68	-0.56	0.65
18826	0.68	-0.56	0.65
18831	0.68	-0.30	0.42
18836	0.68	-0.30	0.42
18841	0.72	-0.10	0.31
18846	0.72	-0.10	0.31
18851	0.80	-0.00	0.32
18856	0.80	-0.00	0.32
18861	0.87	-0.03	0.43
18866	0.87	-0.03	0.43
18871	0.90	-0.17	0.56
18876	0.90	-0.17	0.56
18881	0.89	-0.40	0.67
18886	0.89	-0.40	0.67
18891	0.81	-0.66	0.76
18896	0.81	-0.66	0.76
18901	0.70	-0.87	0.79
18906	0.70	-0.87	0.79
18911	0.63	-1.01	0.81
18916	0.63	-1.01	0.81
18921	0.51	-1.07	0.81
18926	0.51	-1.07	0.81
18931	0.37	-1.04	0.79
18936	0.37	-1.04	0.79
18941	0.23	-0.89	0.82
18946	0.23	-0.89	0.82
18951	0.10	-0.63	0.81
18956	0.10	-0.63	0.81
18961	-0.05	-0.34	0.72
18966	-0.05	-0.34	0.72
18971	-0.20	-0.00	0.60
18976	-0.20	-0.00	0.60
18981	-0.29	0.36	0.44
18986	-0.29	0.36	0.44
18991	-0.37	0.70	0.31
18996	-0.37	0.70	0.31
19001	-0.50	1.03	0.29
19006	-0.50	1.03	0.29
19011	-0.60	1.41	0.36
19016	-0.60	1.41	0.36
19021	-0.72	1.82	0.56
19026	-0.72	1.82	0.56
19031	-0.98	2.00	0.91
19036	-0.98	2.00	0.91
19041	-1.39	2.00	1.24
19046	-1.39	2.00	1.24
19051	-1.76	2.00	1.26
19056	-1.76	2.00	1.26
19061	-1.70	2.00	1.31
19066	-1.70	2.00	1.31
19071	-1.62	2.00	1.61
19076	-1.62	2.00	1.61
19081	-2.00	2.00	1.25
19086	-2.00	2.00	1.25
19091	-2.00	2.00	0.46
19096	-2.00	2.00	0.46
19101	-1.99	1.43	-0.21
19106	-1.99	1.43	-0.21
19111	-2.00	-0.40	-0.27
19116	-2.00	-0.40	-0.27
19121	-1.77	-1.65	0.39
19126	-1.77	-1.65	0.39
19131	0.22	-1.98	0.64
19136	0.22	-1.98	0.64
19141	1.46	0.27	1.11
19146	1.46	0.27	1.11
19151	2.00	2.00	1.05
19156	2.00	2.00	1.05
19161	1.69	2.00	0.83
19166	1.69	2.00	0.83
19171	0.62	1.21	0.76
19176	0.62	1.21	0.76
19181	0.38	-0.21	0.80
19186	0.38	-0.21	0.80
19191	0.36	-0.95	0.90
19196	0.36	-0.95	0.90
19201	0.45	-1.31	0.85
19206	0.45	-1.31	0.85
19211	0.52	-1.55	0.88
19216	0.52	-1.55	0.88
19221	0.51	-1.62	0.89
19226	0.51	-1.62	0.89
19231	0.48	-1.46	0.78
19236	0.48	-1.46	0.78
19241	0.46	-1.08	0.60
19246	0.46	-1.08	0.60
19251	0.44	-0.61	0.50
19256	0.44	-0.61	0.50
19261	0.46	-0.23	0.49
19266	0.46	-0.23	0.49
19271	0.52	0.03	0.46
19276	0.52	0.03	0.46
19281	0.57	0.22	0.41
19286	0.57	0.22	0.41
19291	0.66	0.32	0.36
19296	0.66	0.32	0.36
19301	0.74	0.30	0.34
19306	0.74	0.30	0.34
19311	0.75	0.16	0.35
19316	0.75	0.16	0.35
19321	0.78	-0.06	0.44
19326	0.78	-0.06	0.44
19331	0.82	-0.32	0.56
19336	0.82	-0.32	0.56
19341	0.86	-0.61	0.68
19346	0.86	-0.61	0.68
19351	0.79	-0.89	0.75
19356	0.79	-0.89	0.75
19361	0.67	-1.10	0.73
19366	0.67	-1.10	0.73
19371	0.56	-1.22	0.69
19376	0.56	-1.22	0.69
19381	0.39	-1.20	0.63
19386	0.39	-1.20	0.63
19391	0.17	-1.01	0.54
19396	0.17	-1.01	0.54
19401	-0.00	-0.69	0.48
19406	-0.00	-0.69	0.48
19411	-0.18	-0.33	0.52
19416	-0.18	-0.33	0.52
19421	-0.35	0.08	0.54
19426	-0.35	0.08	0.54
19431	-0.60	0.59	0.58
19436	-0.60	0.59	0.58
19441	-0.95	1.31	0.82
19446	-0.95	1.31	0.82
19451	-1.42	2.00	1.24
19456	-1.42	2.00	1.24
19461	-1.84	2.00	1.68
19466	-1.84	2.00	1.68
19471	-1.63	1.99	1.87
19476	-1.63	1.99	1.87
19481	-1.23	2.00	1.99
19486	-1.23	2.00	1.99
19491	-1.46	2.00	1.99
19496	-1.46	2.00	1.99
19501	-2.00	2.00	1.37
19506	-2.00	2.00	1.37
19511	-2.00	1.95	0.28
19516	-2.00	1.95	0.28
19521	-1.99	0.71	-0.27
19526	-1.99	0.71	-0.27
19531	-2.00	-1.13	-0.30
19536	-2.00	-1.13	-0.30
19541	-0.97	-2.00	-0.46
19546	-0.97	-2.00	-0.46
19551	1.25	-0.73	0.53
19556	1.25	-0.73	0.53
19561	1.97	2.00	0.85
19566	1.97	2.00	0.85
19571	1.89	2.00	0.64
19576	1.89	2.00	0.64
19581	0.87	1.67	0.68
19586	0.87	1.67	0.68
19591	0.22	-0.04	0.54
19596	0.22	-0.04	0.54
19601	0.29	-1.71	0.64
19606	0.29	-1.71	0.64
19611	0.31	-2.00	0.72
19616	0.31	-2.00	0.72
19621	0.79	-0.90	0.73
19626	0.79	-0.90	0.73
19631	0.57	-0.45	0.77
19636	0.57	-0.45	0.77
19641	0.36	-0.51	0.69
19646	0.36	-0.51	0.69
19651	0.38	-0.23	0.54
19656	0.38	-0.23	0.54
19661	0.48	0.21	0.55
19666	0.48	0.21	0.55
19671	0.57	0.55	0.63
19676	0.57	0.55	0.63
19681	0.63	0.70	0.73
19686	0.63	0.70	0.73
19691	0.63	0.64	0.82
19696	0.63	0.64	0.82
19701	0.57	0.43	0.88
19706	0.57	0.43	0.88
19711	0.55	0.18	0.84
19716	0.55	0.18	0.84
19721	0.52	-0.58	0.56
19726	0.52	-0.58	0.56
19731	0.38	-2.00	0.05
19736	0.38	-2.00	0.05
19741	0.81	-1.21	0.34
19746	0.81	-1.21	0.34
19751	0.93	0.21	0.31
19756	0.93	0.21	0.31
19761	0.68	-0.22	0.30
19766	0.68	-0.22	0.30
19771	0.59	-0.68	0.41
19776	0.59	-0.68	0.41
19781	0.54	-0.43	0.57
19786	0.54	-0.43	0.57
19791	0.51	-0.27	0.75
19796	0.51	-0.27	0.75
19801	0.52	-0.43	0.84
19806	0.52	-0.43	0.84
19811	0.50	-0.47	0.90
19816	0.50	-0.47	0.90
19821	0.63	-0.34	0.45
19826	0.63	-0.34	0.45
19831	0.88	-0.20	0.37
19836	0.88	-0.20	0.37
19841	1.05	-0.08	0.76
19846	1.05	-0.08	0.76
19851	0.88	-0.02	0.37
19856	0.88	-0.02	0.37
19861	0.52	-0.08	0.31
19866	0.52	-0.08	0.31
19871	0.75	-0.64	0.98
19876	0.75	-0.64	0.98
19881	1.05	-0.61	0.98
19886	1.05	-0.61	0.98
19891	0.46	-0.69	0.15
19896	0.46	-0.69	0.15
19901	0.59	-0.69	0.32
19906	0.59	-0.69	0.32
19911	0.77	-0.18	0.82
19916	0.77	-0.18	0.82
19921	0.67	-0.36	0.58
19926	0.67	-0.36	0.58
19931	0.72	-0.58	0.35
19936	0.72	-0.58	0.35
19941	0.77	-0.49	0.38
19946	0.77	-0.49	0.38
19951	0.50	-0.39	0.41
19956	0.50	-0.39	0.41
19961	0.59	-0.43	0.52
19966	0.59	-0.43	0.52
19971	0.73	-0.45	0.55
19976	0.73	-0.45	0.55
19981	0.58	-0.55	0.58
19986	0.58	-0.55	0.58
19991	0.50	-0.55	0.58
19996	0.50	-0.55	0.58
20001	0.46	-0.60	0.46
20006	0.46	-0.60	0.46
20011	0.52	-0.71	0.41
20016	0.52	-0.71	0.41
20021	0.51	-0.65	0.57
20026	0.51	-0.65	0.57
20031	0.37	-0.54	0.70
20036	0.37	-0.54	0.70
20041	0.31	-0.60	0.60
20046	0.31	-0.60	0.60
20051	0.32	-0.66	0.51
20056	0.32	-0.66	0.51
20061	0.38	-0.63	0.52
20066	0.38	-0.63	0.52
20071	0.43	-0.69	0.52
20076	0.43	-0.69	0.52
20081	0.39	-0.73	0.49
20086	0.39	-0.73	0.49
20091	0.40	-0.77	0.46
20096	0.40	-0.77	0.46
20101	0.45	-0.71	0.48
20106	0.45	-0.71	0.48
20111	0.48	-0.67	0.51
20116	0.48	-0.67	0.51
20121	0.43	-0.68	0.54
20126	0.43	-0.68	0.54
20131	0.29	-0.70	0.55
20136	0.29	-0.70	0.55
20141	0.14	-0.76	0.60
20146	0.14	-0.76	0.60
20151	0.09	-0.78	0.58
20156	0.09	-0.78	0.58
20161	0.15	-0.74	0.52
20166	0.15	-0.74	0.52
20171	0.26	-0.71	0.54
20176	0.26	-0.71	0.54
20181	0.23	-0.71	0.59
20186	0.23	-0.71	0.59
20191	0.13	-0.71	0.62
20196	0.13	-0.71	0.62
20201	0.02	-0.70	0.64
20206	0.02	-0.70	0.64
20211	-0.04	-0.67	0.63
20216	-0.04	-0.67	0.63
20221	-0.02	-0.61	0.62
20226	-0.02	-0.61	0.62
20231	0.06	-0.55	0.64
20236	0.06	-0.55	0.64
20241	0.11	-0.54	0.62
20246	0.11	-0.54	0.62
20251	0.11	-0.54	0.57
20256	0.11	-0.54	0.57
20261	0.09	-0.54	0.50
20266	0.09	-0.54	0.50
20271	0.12	-0.57	0.45
20276	0.12	-0.57	0.45
20281	0.23	-1.13	0.59
20286	0.23	-1.13	0.59
20291	0.30	-1.23	0.30
20296	0.30	-1.23	0.30
20301	0.57	-0.87	0.49
20306	0.57	-0.87	0.49
20311	0.01	-0.77	0.35
20316	0.01	-0.77	0.35
20321	-0.56	-1.04	0.12
20326	-0.56	-1.04	0.12
20331	0.21	-1.17	0.48
20336	0.21	-1.17	0.48
20341	0.16	-0.69	0.49
20346	0.16	-0.69	0.49
20351	0.05	-0.95	0.54
20356	0.05	-0.95	0.54
20361	0.26	-1.05	0.13
20366	0.26	-1.05	0.13
20371	0.25	-0.83	0.01
20376	0.25	-0.83	0.01
20381	-0.35	-1.70	0.53
20386	-0.35	-1.70	0.53
20391	-0.36	-1.67	0.58
20396	-0.36	-1.67	0.58
20401	-0.17	-1.24	0.61
20406	-0.17	-1.24	0.61
20411	-0.09	-0.90	0.63
20416	-0.09	-0.90	0.63
20421	-0.10	-0.77	0.65
20426	-0.10	-0.77	0.65
20431	-0.19	-0.79	0.60
20436	-0.19	-0.79	0.60
20441	-0.25	-0.85	0.49
20446	-0.25	-0.85	0.49
20451	-0.29	-0.94	0.37
20456	-0.29	-0.94	0.37
20461	-0.33	-1.12	0.31
20466	-0.33	-1.12	0.31
20471	-0.43	-1.31	0.60
20476	-0.43	-1.31	0.60
20481	-0.67	-1.31	0.66
20486	-0.67	-1.31	0.66
20491	-0.62	-1.28	0.48
20496	-0.62	-1.28	0.48
20501	-0.36	-1.25	0.36
20506	-0.36	-1.25	0.36
20511	-0.06	-1.09	0.40
20516	-0.06	-1.09	0.40
20521	0.26	-0.72	0.41
20526	0.26	-0.72	0.41
20531	0.83	-0.37	0.26
20536	0.83	-0.37	0.26
20541	1.60	0.05	-0.28
20546	1.60	0.05	-0.28
20551	2.00	0.59	-1.07
20556	2.00	0.59	-1.07
20561	2.00	1.11	-1.22
20566	2.00	1.11	-1.22
20571	1.99	1.96	-0.81
20576	1.99	1.96	-0.81
20581	2.00	2.00	0.18
20586	2.00	2.00	0.18
20591	2.00	1.85	1.21
20596	2.00	1.85	1.21
20601	1.55	1.19	1.80
20606	1.55	1.19	1.80
20611	0.29	0.80	1.98
20616	0.29	0.80	1.98
20621	-0.92	0.69	1.97
20626	-0.92	0.69	1.97
20631	-1.92	-0.60	0.14
20636	-1.92	-0.60	0.14
20641	-1.80	-1.72	-1.38
20646	-1.80	-1.72	-1.38
20651	1.15	-0.47	-0.74
20656	1.15	-0.47	-0.74
20661	0.77	-0.55	0.06
20666	0.77	-0.55	0.06
20671	-0.05	-1.62	0.59
20676	-0.05	-1.62	0.59
20681	-0.02	-1.35	0.13
20686	-0.02	-1.35	0.13
20691	-0.04	-1.14	0.32
20696	-0.04	-1.14	0.32
20701	-0.76	-0.94	0.01
20706	-0.76	-0.94	0.01
20711	-1.48	-0.27	-0.19
20716	-1.48	-0.27	-0.19
20721	-1.45	-0.36	-0.09
20726	-1.45	-0.36	-0.09
20731	-0.83	-0.65	-0.72
20736	-0.83	-0.65	-0.72
20741	-0.13	-0.93	-0.75
20746	-0.13	-0.93	-0.75
20751	0.13	-1.22	-0.02
20756	0.13	-1.22	-0.02
20761	0.02	-1.32	0.38
20766	0.02	-1.32	0.38
20771	-0.01	-1.32	0.26
20776	-0.01	-1.32	0.26
20781	-0.14	-1.22	0.25
20786	-0.14	-1.22	0.25
20791	-0.29	-1.19	0.33
20796	-0.29	-1.19	0.33
20801	-0.27	-1.15	0.31
20806	-0.27	-1.15	0.31
20811	-0.22	-1.13	0.21
20816	-0.22	-1.13	0.21
20821	-0.07	-1.15	0.07
20826	-0.07	-1.15	0.07
20831	0.10	-1.17	0.05
20836	0.10	-1.17	0.05
20841	0.18	-1.19	0.12
20846	0.18	-1.19	0.12
20851	0.19	-1.17	0.19
20856	0.19	-1.17	0.19
20861	0.09	-1.11	0.18
20866	0.09	-1.11	0.18
20871	-0.05	-1.09	0.24
20876	-0.05	-1.09	0.24
20881	-0.12	-1.07	0.34
20886	-0.12	-1.07	0.34
20891	-0.19	-1.06	0.36
20896	-0.19	-1.06	0.36
20901	-0.19	-1.08	0.34
20906	-0.19	-1.08	0.34
20911	-0.09	-1.05	0.26
20916	-0.09	-1.05	0.26
20921	-0.00	-0.99	0.15
20926	-0.00	-0.99	0.15
20931	0.08	-0.92	0.17
20936	0.08	-0.92	0.17
20941	0.24	-0.77	0.28
20946	0.24	-0.77	0.28
20951	0.14	-0.61	0.35
20956	0.14	-0.61	0.35
20961	0.02	-0.57	0.27
20966	0.02	-0.57	0.27
20971	0.07	-0.60	0.14
20976	0.07	-0.60	0.14
20981	0.11	-0.64	0.08
20986	0.11	-0.64	0.08
20991	0.16	-0.68	0.06
20996	0.16	-0.68	0.06
21001	0.33	-0.66	-0.09
21006	0.33	-0.66	-0.09
21011	0.82	-0.52	-0.33
21016	0.82	-0.52	-0.33
21021	1.45	-0.25	-0.29
21026	1.45	-0.25	-0.29
21031	1.93	0.05	0.03
21036	1.93	0.05	0.03
21041	2.00	0.41	0.38
21046	2.00	0.41	0.38
21051	2.00	0.54	0.92
21056	2.00	0.54	0.92
21061	1.76	0.46	1.42
21066	1.76	0.46	1.42
21071	0.99	0.50	1.44
21076	0.99	0.50	1.44
21081	0.24	0.65	0.98
21086	0.24	0.65	0.98
21091	-0.85	-0.05	0.31
21096	-0.85	-0.05	0.31
21101	-2.00	-2.00	-1.34
21106	-2.00	-2.00	-1.34
21111	-0.42	-0.37	-0.58
21116	-0.42	-0.37	-0.58
21121	-0.32	0.18	-0.73
21126	-0.32	0.18	-0.73
21131	0.26	-2.00	-0.07
21136	0.26	-2.00	-0.07
21141	0.45	-1.41	0.41
21146	0.45	-1.41	0.41
21151	-0.45	-0.76	0.16
21156	-0.45	-0.76	0.16
21161	-1.53	-0.80	0.42
21166	-1.53	-0.80	0.42
21171	-2.00	-0.68	0.36
21176	-2.00	-0.68	0.36
21181	-1.35	-0.83	0.12
21186	-1.35	-0.83	0.12
21191	-0.38	-1.25	-0.09
21196	-0.38	-1.25	-0.09
21201	-0.03	-1.45	-0.19
21206	-0.03	-1.45	-0.19
21211	-0.14	-1.46	-0.05
21216	-0.14	-1.46	-0.05
21221	-0.33	-1.39	0.21
21226	-0.33	-1.39	0.21
21231	-0.41	-1.28	0.40
21236	-0.41	-1.28	0.40
21241	-0.44	-1.18	0.45
21246	-0.44	-1.18	0.45
21251	-0.48	-1.10	0.49
21256	-0.48	-1.10	0.49
21261	-0.36	-1.04	0.44
21266	-0.36	-1.04	0.44
21271	-0.18	-0.99	0.33
21276	-0.18	-0.99	0.33
21281	-0.00	-0.91	0.23
21286	-0.00	-0.91	0.23
21291	0.12	-0.83	0.15
21296	0.12	-0.83	0.15
21301	0.14	-0.72	0.12
21306	0.14	-0.72	0.12
21311	0.25	-0.52	0.11
21316	0.25	-0.52	0.11
21321	0.51	-0.31	0.07
21326	0.51	-0.31	0.07
21331	0.80	-0.14	0.03
21336	0.80	-0.14	0.03
21341	0.99	0.01	0.14
21346	0.99	0.01	0.14
21351	1.19	0.17	0.33
21356	1.19	0.17	0.33
21361	1.46	0.31	0.40
21366	1.46	0.31	0.40
21371	1.72	0.42	0.50
21376	1.72	0.42	0.50
21381	1.92	0.52	0.67
21386	1.92	0.52	0.67
21391	1.99	0.58	0.73
21396	1.99	0.58	0.73
21401	2.00	0.53	0.81
21406	2.00	0.53	0.81
21411	1.99	0.44	0.98
21416	1.99	0.44	0.98
21421	1.66	0.47	1.03
21426	1.66	0.47	1.03
21431	0.90	0.51	0.88
21436	0.90	0.51	0.88
21441	0.18	0.46	0.67
21446	0.18	0.46	0.67
21451	-0.42	0.40	0.49
21456	-0.42	0.40	0.49
21461	-1.10	-0.08	0.15
21466	-1.10	-0.08	0.15
21471	-1.73	-2.00	-0.90
21476	-1.73	-2.00	-0.90
21481	-0.34	0.12	-0.56
21486	-0.34	0.12	-0.56
21491	-0.56	0.76	-0.48
21496	-0.56	0.76	-0.48
21501	-0.23	-1.67	-0.19
21506	-0.23	-1.67	-0.19
21511	0.45	-1.58	-0.01
21516	0.45	-1.58	-0.01
21521	0.11	-1.33	0.03
21526	0.11	-1.33	0.03
21531	-0.90	-0.88	0.20
21536	-0.90	-0.88	0.20
21541	-1.84	-0.72	0.08
21546	-1.84	-0.72	0.08
21551	-1.96	-0.93	0.12
21556	-1.96	-0.93	0.12
21561	-1.17	-1.16	0.20
21566	-1.17	-1.16	0.20
21571	-0.31	-1.42	-0.11
21576	-0.31	-1.42	-0.11
21581	0.14	-1.49	-0.36
21586	0.14	-1.49	-0.36
21591	-0.07	-1.10	-0.30
21596	-0.07	-1.10	-0.30
21601	-0.31	-0.84	-0.01
21606	-0.31	-0.84	-0.01
21611	-0.34	-0.85	0.26
21616	-0.34	-0.85	0.26
21621	-0.30	-0.89	0.39
21626	-0.30	-0.89	0.39
21631	-0.30	-0.94	0.34
21636	-0.30	-0.94	0.34
21641	-0.27	-1.00	0.22
21646	-0.27	-1.00	0.22
21651	-0.12	-1.05	0.12
21656	-0.12	-1.05	0.12
21661	0.05	-1.03	0.11
21666	0.05	-1.03	0.11
21671	0.16	-0.94	0.14
21676	0.16	-0.94	0.14
21681	0.26	-0.80	0.10
21686	0.26	-0.80	0.10
21691	0.29	-0.67	0.08
21696	0.29	-0.67	0.08
21701	0.35	-0.55	0.10
21706	0.35	-0.55	0.10
21711	0.43	-0.48	0.09
21716	0.43	-0.48	0.09
21721	0.58	-0.41	0.09
21726	0.58	-0.41	0.09
21731	0.87	-0.31	0.05
21736	0.87	-0.31	0.05
21741	1.17	-0.21	0.09
21746	1.17	-0.21	0.09
21751	1.33	-0.09	0.22
21756	1.33	-0.09	0.22
21761	1.43	0.02	0.35
21766	1.43	0.02	0.35
21771	1.63	0.02	0.44
21776	1.63	0.02	0.44
21781	1.98	-0.02	0.61
21786	1.98	-0.02	0.61
21791	2.00	-0.01	0.81
21796	2.00	-0.01	0.81
21801	1.99	0.07	1.02
21806	1.99	0.07	1.02
21811	1.76	0.19	1.10
21816	1.76	0.19	1.10
21821	1.05	0.30	1.07
21826	1.05	0.30	1.07
21831	0.27	0.41	0.89
21836	0.27	0.41	0.89
21841	-0.54	0.29	0.55
21846	-0.54	0.29	0.55
21851	-2.00	-1.67	-0.77
21856	-2.00	-1.67	-0.77
21861	-0.44	-0.99	-1.39
21866	-0.44	-0.99	-1.39
21871	-0.50	1.05	-0.16
21876	-0.50	1.05	-0.16
21881	0.12	-1.49	-0.49
21886	0.12	-1.49	-0.49
21891	0.27	-1.28	-0.36
21896	0.27	-1.28	-0.36
21901	0.21	-0.82	-0.21
21906	0.21	-0.82	-0.21
21911	-0.14	-1.30	-0.11
21916	-0.14	-1.30	-0.11
21921	-0.69	-0.98	-0.16
21926	-0.69	-0.98	-0.16
21931	-1.13	-0.65	-0.23
21936	-1.13	-0.65	-0.23
21941	-1.44	-0.14	0.06
21946	-1.44	-0.14	0.06
21951	-1.17	-0.03	0.46
21956	-1.17	-0.03	0.46
21961	-0.58	-0.41	0.06
21966	-0.58	-0.41	0.06
21971	-0.33	-0.81	-0.37
21976	-0.33	-0.81	-0.37
21981	-0.40	-1.00	-0.39
21986	-0.40	-1.00	-0.39
21991	-0.47	-1.15	-0.29
21996	-0.47	-1.15	-0.29
22001	-0.55	-1.39	-0.30
22006	-0.55	-1.39	-0.30
22011	-0.66	-1.67	-0.15
22016	-0.66	-1.67	-0.15
22021	-0.67	-1.67	0.16
22026	-0.67	-1.67	0.16
22031	-0.57	-1.52	0.34
22036	-0.57	-1.52	0.34
22041	-0.36	-1.46	0.36
22046	-0.36	-1.46	0.36
22051	-0.09	-1.31	0.41
22056	-0.09	-1.31	0.41
22061	0.09	-1.06	0.41
22066	0.09	-1.06	0.41
22071	0.11	-0.90	0.34
22076	0.11	-0.90	0.34
22081	0.04	-0.84	0.31
22086	0.04	-0.84	0.31
22091	0.11	-0.78	0.26
22096	0.11	-0.78	0.26
22101	0.22	-0.68	0.17
22106	0.22	-0.68	0.17
22111	0.21	-0.60	0.17
22116	0.21	-0.60	0.17
22121	0.14	-0.60	0.16
22126	0.14	-0.60	0.16
22131	0.00	-0.74	0.26
22136	0.00	-0.74	0.26
22141	-0.06	-1.00	0.46
22146	-0.06	-1.00	0.46
22151	-0.08	-1.21	0.61
22156	-0.08	-1.21	0.61
22161	-0.18	-1.21	0.57
22166	-0.18	-1.21	0.57
22171	-0.34	-1.08	0.36
22176	-0.34	-1.08	0.36
22181	-0.34	-0.98	0.11
22186	-0.34	-0.98	0.11
22191	-0.30	-0.88	-0.11
22196	-0.30	-0.88	-0.11
22201	-0.34	-0.81	-0.22
22206	-0.34	-0.81	-0.22
22211	-0.39	-0.82	-0.19
22216	-0.39	-0.82	-0.19
22221	-0.31	-0.95	-0.06
22226	-0.31	-0.95	-0.06
22231	-0.15	-1.01	0.09
22236	-0.15	-1.01	0.09
22241	-0.12	-0.98	0.26
22246	-0.12	-0.98	0.26
22251	-0.10	-1.01	0.45
22256	-0.10	-1.01	0.45
22261	-0.02	-0.99	0.45
22266	-0.02	-0.99	0.45
22271	0.02	-0.86	0.28
22276	0.02	-0.86	0.28
22281	0.11	-0.71	0.12
22286	0.11	-0.71	0.12
22291	0.28	-0.66	0.13
22296	0.28	-0.66	0.13
22301	0.36	-0.66	0.24
22306	0.36	-0.66	0.24
22311	0.24	-0.66	0.29
22316	0.24	-0.66	0.29
22321	0.23	-0.77	0.32
22326	0.23	-0.77	0.32
22331	0.43	-0.83	0.33
22336	0.43	-0.83	0.33
22341	0.72	-0.69	0.32
22346	0.72	-0.69	0.32
22351	0.93	-0.43	0.37
22356	0.93	-0.43	0.37
22361	1.09	-0.23	0.43
22366	1.09	-0.23	0.43
22371	1.38	-0.09	0.36
22376	1.38	-0.09	0.36
22381	1.72	0.06	0.25
22386	1.72	0.06	0.25
22391	2.00	0.11	0.75
22396	2.00	0.11	0.75
22401	1.94	0.12	1.27
22406	1.94	0.12	1.27
22411	1.54	0.06	1.41
22416	1.54	0.06	1.41
22421	1.03	0.04	1.30
22426	1.03	0.04	1.30
22431	0.46	-0.05	0.75
22436	0.46	-0.05	0.75
22441	-0.24	-0.28	0.37
22446	-0.24	-0.28	0.37
22451	-0.67	-0.45	0.33
22456	-0.67	-0.45	0.33
22461	-1.73	-1.44	-0.31
22466	-1.73	-1.44	-0.31
22471	-1.69	-0.86	-1.14
22476	-1.69	-0.86	-1.14
22481	-0.47	0.12	-0.21
22486	-0.47	0.12	-0.21
22491	-0.05	-0.97	-0.58
22496	-0.05	-0.97	-0.58
22501	-0.01	-1.86	-0.29
22506	-0.01	-1.86	-0.29
22511	0.34	-1.48	0.20
22516	0.34	-1.48	0.20
22521	-0.09	-0.80	0.10
22526	-0.09	-0.80	0.10
22531	-0.62	-0.64	-0.08
22536	-0.62	-0.64	-0.08
22541	-0.71	-0.75	-0.02
22546	-0.71	-0.75	-0.02
22551	-0.47	-0.78	0.01
22556	-0.47	-0.78	0.01
22561	-0.34	-0.79	-0.03
22566	-0.34	-0.79	-0.03
22571	-0.35	-0.93	-0.05
22576	-0.35	-0.93	-0.05
22581	-0.47	-0.92	-0.01
22586	-0.47	-0.92	-0.01
22591	-0.50	-0.02	0.07
22596	-0.50	-0.02	0.07
22601	-0.65	-0.74	0.41
22606	-0.65	-0.74	0.41
22611	-0.95	-1.50	0.17
22616	-0.95	-1.50	0.17
22621	-0.97	-1.59	0.02
22626	-0.97	-1.59	0.02
22631	-1.19	-1.46	-0.04
22636	-1.19	-1.46	-0.04
22641	-1.07	-1.28	-0.24
22646	-1.07	-1.28	-0.24
22651	-0.94	-1.08	-0.15
22656	-0.94	-1.08	-0.15
22661	-0.86	-0.97	0.00
22666	-0.86	-0.97	0.00
22671	-0.73	-0.91	0.22
22676	-0.73	-0.91	0.22
22681	-0.60	-0.99	0.43
22686	-0.60	-0.99	0.43
22691	-0.59	-0.82	0.00
22696	-0.59	-0.82	0.00
22701	-0.59	-0.74	-0.15
22706	-0.59	-0.74	-0.15
22711	-0.51	-0.80	-0.04
22716	-0.51	-0.80	-0.04
22721	-0.38	-0.87	0.11
22726	-0.38	-0.87	0.11
22731	-0.25	-0.84	0.18
22736	-0.25	-0.84	0.18
22741	-0.09	-0.74	0.18
22746	-0.09	-0.74	0.18
22751	0.06	-0.68	0.15
22756	0.06	-0.68	0.15
22761	0.05	-0.61	0.15
22766	0.05	-0.61	0.15
22771	0.08	-0.60	0.14
22776	0.08	-0.60	0.14
22781	0.20	-0.63	0.13
22786	0.20	-0.63	0.13
22791	0.32	-0.64	0.14
22796	0.32	-0.64	0.14
22801	0.37	-0.65	0.16
22806	0.37	-0.65	0.16
22811	0.30	-0.71	0.27
22816	0.30	-0.71	0.27
22821	0.21	-0.86	0.38
22826	0.21	-0.86	0.38
22831	0.09	-1.06	0.35
22836	0.09	-1.06	0.35
22841	0.00	-1.19	0.37
22846	0.00	-1.19	0.37
22851	0.04	-1.20	0.39
22856	0.04	-1.20	0.39
22861	0.15	-1.12	0.33
22866	0.15	-1.12	0.33
22871	0.23	-0.98	0.34
22876	0.23	-0.98	0.34
22881	0.30	-0.88	0.41
22886	0.30	-0.88	0.41
22891	0.34	-0.86	0.42
22896	0.34	-0.86	0.42
22901	0.32	-0.89	0.33
22906	0.32	-0.89	0.33
22911	0.28	-0.90	0.30
22916	0.28	-0.90	0.30
22921	0.36	-0.82	0.28
22926	0.36	-0.82	0.28
22931	0.55	-0.62	0.18
22936	0.55	-0.62	0.18
22941	0.87	-0.38	0.13
22946	0.87	-0.38	0.13
22951	1.20	-0.10	0.15
22956	1.20	-0.10	0.15
22961	1.51	-0.03	0.21
22966	1.51	-0.03	0.21
22971	1.81	-0.24	0.42
22976	1.81	-0.24	0.42
22981	1.97	-0.42	0.81
22986	1.97	-0.42	0.81
22991	2.00	-0.35	1.24
22996	2.00	-0.35	1.24
23001	1.89	-0.19	1.54
23006	1.89	-0.19	1.54
23011	1.34	0.09	1.58
23016	1.34	0.09	1.58
23021	0.67	0.26	1.33
23026	0.67	0.26	1.33
23031	0.03	0.05	1.06
23036	0.03	0.05	1.06
23041	-1.51	-0.31	-0.46
23046	-1.51	-0.31	-0.46
23051	-1.70	-0.78	-1.27
23056	-1.70	-0.78	-1.27
23061	-0.59	-0.39	-0.01
23066	-0.59	-0.39	-0.01
23071	-0.39	-0.11	-0.81
23076	-0.39	-0.11	-0.81
23081	-0.19	-2.00	-0.34
23086	-0.19	-2.00	-0.34
23091	0.08	-1.96	0.17
23096	0.08	-1.96	0.17
23101	-0.17	-1.13	-0.07
23106	-0.17	-1.13	-0.07
23111	-0.60	-0.79	-0.12
23116	-0.60	-0.79	-0.12
23121	-0.65	-0.60	-0.20
23126	-0.65	-0.60	-0.20
23131	-0.53	-0.50	-0.23
23136	-0.53	-0.50	-0.23
23141	-0.40	-0.58	-0.09
23146	-0.40	-0.58	-0.09
23151	-0.41	-0.71	0.02
23156	-0.41	-0.71	0.02
23161	-0.49	-0.70	0.15
23166	-0.49	-0.70	0.15
23171	-0.56	-0.86	-0.06
23176	-0.56	-0.86	-0.06
23181	-0.63	-0.96	-0.04
23186	-0.63	-0.96	-0.04
23191	-0.69	-0.74	-0.12
23196	-0.69	-0.74	-0.12
23201	-0.77	-0.95	0.19
23206	-0.77	-0.95	0.19
23211	-0.75	-1.15	0.38
23216	-0.75	-1.15	0.38
23221	-0.73	-1.21	0.30
23226	-0.73	-1.21	0.30
23231	-0.68	-1.13	0.10
23236	-0.68	-1.13	0.10
23241	-0.70	-0.99	-0.02
23246	-0.70	-0.99	-0.02
23251	-0.63	-1.00	0.07
23256	-0.63	-1.00	0.07
23261	-0.50	-1.07	0.20
23266	-0.50	-1.07	0.20
23271	-0.42	-1.04	0.23
23276	-0.42	-1.04	0.23
23281	-0.38	-0.99	0.25
23286	-0.38	-0.99	0.25
23291	-0.24	-0.96	0.21
23296	-0.24	-0.96	0.21
23301	-0.10	-0.82	0.17
23306	-0.10	-0.82	0.17
23311	0.01	-0.71	0.23
23316	0.01	-0.71	0.23
23321	0.15	-0.61	0.32
23326	0.15	-0.61	0.32
23331	0.25	-0.52	0.30
23336	0.25	-0.52	0.30
23341	0.24	-0.64	0.32
23346	0.24	-0.64	0.32
23351	0.22	-0.70	0.42
23356	0.22	-0.70	0.42
23361	0.25	-0.74	0.39
23366	0.25	-0.74	0.39
23371	0.33	-0.73	0.44
23376	0.33	-0.73	0.44
23381	0.44	-0.73	0.50
23386	0.44	-0.73	0.50
23391	0.49	-0.73	0.42
23396	0.49	-0.73	0.42
23401	0.54	-0.74	0.38
23406	0.54	-0.74	0.38
23411	0.46	-0.78	0.51
23416	0.46	-0.78	0.51
23421	0.24	-0.77	0.61
23426	0.24	-0.77	0.61
23431	0.14	-0.81	0.55
23436	0.14	-0.81	0.55
23441	-0.39	-1.29	0.61
23446	-0.39	-1.29	0.61
23451	-0.51	-1.82	0.47
23456	-0.51	-1.82	0.47
23461	-0.15	-1.58	0.22
23466	-0.15	-1.58	0.22
23471	0.19	-1.16	0.22
23476	0.19	-1.16	0.22
23481	0.34	-0.91	-0.06
23486	0.34	-0.91	-0.06
23491	-0.37	-1.05	0.02
23496	-0.37	-1.05	0.02
23501	-1.15	-1.57	0.13
23506	-1.15	-1.57	0.13
23511	-0.24	-1.63	-0.35
23516	-0.24	-1.63	-0.35
23521	-0.21	-1.40	-0.12
23526	-0.21	-1.40	-0.12
23531	-0.36	-1.14	0.22
23536	-0.36	-1.14	0.22
23541	-0.22	-0.76	0.14
23546	-0.22	-0.76	0.14
23551	0.02	-0.55	0.09
23556	0.02	-0.55	0.09
23561	0.37	-0.71	0.00
23566	0.37	-0.71	0.00
23571	0.37	-0.84	-0.16
23576	0.37	-0.84	-0.16
23581	0.13	-0.73	-0.14
23586	0.13	-0.73	-0.14
23591	-0.02	-0.83	-0.04
23596	-0.02	-0.83	-0.04
23601	-0.03	-0.97	0.04
23606	-0.03	-0.97	0.04
23611	0.07	-0.99	0.10
23616	0.07	-0.99	0.10
23621	0.21	-0.98	0.11
23626	0.21	-0.98	0.11
23631	0.34	-1.01	0.03
23636	0.34	-1.01	0.03
23641	0.42	-1.01	-0.11
23646	0.42	-1.01	-0.11
23651	0.45	-0.95	-0.20
23656	0.45	-0.95	-0.20
23661	0.42	-0.90	-0.15
23666	0.42	-0.90	-0.15
23671	0.35	-0.89	-0.08
23676	0.35	-0.89	-0.08
23681	0.24	-0.90	-0.05
23686	0.24	-0.90	-0.05
23691	0.11	-0.86	0.02
23696	0.11	-0.86	0.02
23701	0.01	-0.94	0.09
23706	0.01	-0.94	0.09
23711	0.00	-0.98	0.12
23716	0.00	-0.98	0.12
23721	0.02	-0.91	0.11
23726	0.02	-0.91	0.11
23731	0.14	-0.87	0.29
23736	0.14	-0.87	0.29
23741	0.13	-0.82	0.19
23746	0.13	-0.82	0.19
23751	0.15	-0.86	0.18
23756	0.15	-0.86	0.18
23761	0.13	-0.85	0.11
23766	0.13	-0.85	0.11
23771	0.25	-0.82	-0.05
23776	0.25	-0.82	-0.05
23781	0.33	-1.00	-0.11
23786	0.33	-1.00	-0.11
23791	0.30	-1.07	-0.10
23796	0.30	-1.07	-0.10
23801	0.48	-1.03	-0.27
23806	0.48	-1.03	-0.27
23811	0.22	-0.81	-0.44
23816	0.22	-0.81	-0.44
23821	0.18	-0.70	-0.43
23826	0.18	-0.70	-0.43
23831	0.23	-0.73	-0.52
23836	0.23	-0.73	-0.52
23841	0.31	-0.67	-0.63
23846	0.31	-0.67	-0.63
23851	0.25	-0.62	-0.66
23856	0.25	-0.62	-0.66
23861	0.28	-0.58	-0.55
23866	0.28	-0.58	-0.55
23871	0.40	-0.69	-0.35
23876	0.40	-0.69	-0.35
23881	0.36	-0.80	-0.20
23886	0.36	-0.80	-0.20
23891	0.28	-0.79	-0.19
23896	0.28	-0.79	-0.19
23901	0.22	-0.77	-0.21
23906	0.22	-0.77	-0.21
23911	0.17	-0.72	-0.17
23916	0.17	-0.72	-0.17
23921	0.33	-0.75	-0.15
23926	0.33	-0.75	-0.15
23931	0.38	-0.71	-0.34
23936	0.38	-0.71	-0.34
23941	0.44	-0.62	-0.36
23946	0.44	-0.62	-0.36
23951	0.49	-0.62	-0.29
23956	0.49	-0.62	-0.29
23961	0.51	-0.67	-0.20
23966	0.51	-0.67	-0.20
23971	0.58	-0.71	-0.11
23976	0.58	-0.71	-0.11
23981	0.64	-0.65	-0.03
23986	0.64	-0.65	-0.03
23991	0.64	-0.64	0.05
23996	0.64	-0.64	0.05
24001	0.71	-0.56	0.21
24006	0.71	-0.56	0.21
24011	0.63	-0.53	0.20
24016	0.63	-0.53	0.20
24021	0.64	-0.46	0.16
24026	0.64	-0.46	0.16
24031	0.77	-0.28	0.16
24036	0.77	-0.28	0.16
24041	0.85	-0.06	-0.01
24046	0.85	-0.06	-0.01
24051	0.94	0.02	-0.18
24056	0.94	0.02	-0.18
24061	1.14	-0.00	-0.21
24066	1.14	-0.00	-0.21
24071	1.26	0.10	-0.19
24076	1.26	0.10	-0.19
24081	1.29	0.11	-0.11
24086	1.29	0.11	-0.11
24091	1.18	0.12	0.00
24096	1.18	0.12	0.00
24101	1.04	0.07	0.12
24106	1.04	0.07	0.12
24111	0.98	0.06	0.14
24116	0.98	0.06	0.14
24121	0.95	0.03	0.12
24126	0.95	0.03	0.12
24131	0.95	-0.00	0.09
24136	0.95	-0.00	0.09
24141	0.87	-0.06	-0.01
24146	0.87	-0.06	-0.01
24151	0.81	-0.11	-0.06
24156	0.81	-0.11	-0.06
24161	0.77	-0.10	-0.24
24166	0.77	-0.10	-0.24
24171	0.91	-0.22	-0.22
24176	0.91	-0.22	-0.22
24181	0.89	-0.25	-0.01
24186	0.89	-0.25	-0.01
24191	0.77	-0.21	-0.18
24196	0.77	-0.21	-0.18
24201	0.72	-0.19	-0.14
24206	0.72	-0.19	-0.14
24211	0.83	-0.37	0.10
24216	0.83	-0.37	0.10
24221	0.74	-0.31	-0.03
24226	0.74	-0.31	-0.03
24231	0.79	-0.32	-0.00
24236	0.79	-0.32	-0.00
24241	0.91	-0.29	0.06
24246	0.91	-0.29	0.06
24251	0.95	-0.17	-0.03
24256	0.95	-0.17	-0.03
24261	0.94	-0.11	-0.08
24266	0.94	-0.11	-0.08
24271	0.95	-0.13	-0.07
24276	0.95	-0.13	-0.07
24281	0.97	-0.12	-0.07
24286	0.97	-0.12	-0.07
24291	0.98	-0.03	-0.11
24296	0.98	-0.03	-0.11
24301	0.94	0.01	-0.15
24306	0.94	0.01	-0.15
24311	0.85	0.02	-0.17
24316	0.85	0.02	-0.17
24321	0.91	0.09	-0.12
24326	0.91	0.09	-0.12
24331	1.09	0.05	-0.10
24336	1.09	0.05	-0.10
24341	1.28	0.09	-0.01
24346	1.28	0.09	-0.01
24351	1.43	-0.04	0.05
24356	1.43	-0.04	0.05
24361	1.24	-0.35	-0.10
24366	1.24	-0.35	-0.10
24371	0.93	-0.36	-0.17
24376	0.93	-0.36	-0.17
24381	0.91	-0.30	-0.24
24386	0.91	-0.30	-0.24
24391	0.84	-0.29	-0.38
24396	0.84	-0.29	-0.38
24401	0.77	-0.26	-0.49
24406	0.77	-0.26	-0.49
24411	0.82	-0.26	-0.56
24416	0.82	-0.26	-0.56
24421	0.83	-0.25	-0.59
24426	0.83	-0.25	-0.59
24431	0.75	-0.19	-0.63
24436	0.75	-0.19	-0.63
24441	0.63	-0.12	-0.68
24446	0.63	-0.12	-0.68
24451	0.49	-0.12	-0.66
24456	0.49	-0.12	-0.66
24461	0.35	-0.12	-0.66
24466	0.35	-0.12	-0.66
24471	0.24	-0.12	-0.63
24476	0.24	-0.12	-0.63
24481	0.34	-0.10	-0.38
24486	0.34	-0.10	-0.38
24491	0.52	0.02	0.07
24496	0.52	0.02	0.07
24501	0.60	0.07	0.36
24506	0.60	0.07	0.36
24511	0.57	0.08	0.57
24516	0.57	0.08	0.57
24521	0.46	0.10	0.83
24526	0.46	0.10	0.83
24531	0.45	0.14	1.08
24536	0.45	0.14	1.08
24541	0.48	0.27	1.31
24546	0.48	0.27	1.31
24551	0.44	0.49	1.60
24556	0.44	0.49	1.60
24561	0.48	0.72	1.84
24566	0.48	0.72	1.84
24571	0.49	0.95	1.97
24576	0.49	0.95	1.97
24581	0.33	1.16	2.00
24586	0.33	1.16	2.00
24591	0.16	1.29	1.85
24596	0.16	1.29	1.85
24601	0.10	1.33	1.63
24606	0.10	1.33	1.63
24611	0.08	1.31	1.47
24616	0.08	1.31	1.47
24621	0.09	1.30	1.34
24626	0.09	1.30	1.34
24631	0.08	1.28	1.14
24636	0.08	1.28	1.14
24641	0.06	1.30	0.97
24646	0.06	1.30	0.97
24651	-0.03	1.33	0.73
24656	-0.03	1.33	0.73
24661	-0.12	1.31	0.44
24666	-0.12	1.31	0.44
24671	-0.06	1.22	0.12
24676	-0.06	1.22	0.12
24681	-0.01	1.07	-0.03
24686	-0.01	1.07	-0.03
24691	0.01	0.93	-0.12
24696	0.01	0.93	-0.12
24701	0.06	0.79	-0.20
24706	0.06	0.79	-0.20
24711	0.14	0.67	-0.33
24716	0.14	0.67	-0.33
24721	0.22	0.60	-0.49
24726	0.22	0.60	-0.49
24731	0.17	0.63	-0.74
24736	0.17	0.63	-0.74
24741	0.14	0.66	-1.14
24746	0.14	0.66	-1.14
24751	0.20	0.57	-1.59
24756	0.20	0.57	-1.59
24761	-0.04	0.51	-1.98
24766	-0.04	0.51	-1.98
24771	-0.45	0.49	-2.00
24776	-0.45	0.49	-2.00
24781	-0.73	0.46	-1.99
24786	-0.73	0.46	-1.99
24791	-0.80	0.41	-1.98
24796	-0.80	0.41	-1.98
24801	-0.80	0.38	-1.16
24806	-0.80	0.38	-1.16
24811	-0.56	-0.25	0.03
24816	-0.56	-0.25	0.03
24821	-0.59	-0.58	0.91
24826	-0.59	-0.58	0.91
24831	-0.72	-0.48	1.68
24836	-0.72	-0.48	1.68
24841	0.39	-1.18	1.70
24846	0.39	-1.18	1.70
24851	1.77	1.15	-0.67
24856	1.77	1.15	-0.67
24861	1.79	0.82	-1.26
24866	1.79	0.82	-1.26
24871	1.03	0.51	-0.35
24876	1.03	0.51	-0.35
24881	1.39	0.79	-0.20
24886	1.39	0.79	-0.20
24891	1.08	0.48	-0.05
24896	1.08	0.48	-0.05
24901	0.68	-0.16	-0.09
24906	0.68	-0.16	-0.09
24911	0.85	-0.67	0.15
24916	0.85	-0.67	0.15
24921	1.12	-0.68	0.54
24926	1.12	-0.68	0.54
24931	1.09	-0.46	0.68
24936	1.09	-0.46	0.68
24941	0.80	-0.22	0.66
24946	0.80	-0.22	0.66
24951	0.54	-0.05	0.68
24956	0.54	-0.05	0.68
24961	0.46	0.05	0.78
24966	0.46	0.05	0.78
24971	0.46	0.17	0.87
24976	0.46	0.17	0.87
24981	0.52	0.31	0.91
24986	0.52	0.31	0.91
24991	0.59	0.40	0.93
24996	0.59	0.40	0.93
25001	0.68	0.49	1.01
25006	0.68	0.49	1.01
25011	0.67	0.62	1.11
25016	0.67	0.62	1.11
25021	0.50	0.82	1.12
25026	0.50	0.82	1.12
25031	0.31	1.01	1.06
25036	0.31	1.01	1.06
25041	0.31	1.09	0.94
25046	0.31	1.09	0.94
25051	0.41	1.09	0.82
25056	0.41	1.09	0.82
25061	0.39	1.08	0.72
25066	0.39	1.08	0.72
25071	0.25	1.00	0.55
25076	0.25	1.00	0.55
25081	0.10	0.89	0.29
25086	0.10	0.89	0.29
25091	-0.01	0.83	-0.01
25096	-0.01	0.83	-0.01
25101	-0.05	0.82	-0.23
25106	-0.05	0.82	-0.23
25111	0.01	0.83	-0.48
25116	0.01	0.83	-0.48
25121	0.16	0.83	-0.76
25126	0.16	0.83	-0.76
25131	0.29	0.78	-1.10
25136	0.29	0.78	-1.10
25141	0.40	0.71	-1.58
25146	0.40	0.71	-1.58
25151	0.37	0.67	-2.00
25156	0.37	0.67	-2.00
25161	0.03	0.66	-2.00
25166	0.03	0.66	-2.00
25171	-0.37	0.57	-1.99
25176	-0.37	0.57	-1.99
25181	-0.57	0.29	-1.68
25186	-0.57	0.29	-1.68
25191	-0.72	-0.07	-0.69
25196	-0.72	-0.07	-0.69
25201	-0.77	-0.36	0.44
25206	-0.77	-0.36	0.44
25211	-0.15	-0.75	1.62
25216	-0.15	-0.75	1.62
25221	1.41	1.06	1.40
25226	1.41	1.06	1.40
25231	1.02	0.93	-0.77
25236	1.02	0.93	-0.77
25241	1.01	0.11	-0.63
25246	1.01	0.11	-0.63
25251	0.99	0.08	0.30
25256	0.99	0.08	0.30
25261	0.78	0.05	0.54
25266	0.78	0.05	0.54
25271	0.93	-0.32	0.82
25276	0.93	-0.32	0.82
25281	1.08	-0.55	1.15
25286	1.08	-0.55	1.15
25291	0.86	-0.33	1.09
25296	0.86	-0.33	1.09
25301	0.70	-0.01	0.87
25306	0.70	-0.01	0.87
25311	0.65	0.13	0.82
25316	0.65	0.13	0.82
25321	0.68	0.18	0.90
25326	0.68	0.18	0.90
25331	0.64	0.26	0.98
25336	0.64	0.26	0.98
25341	0.59	0.36	1.10
25346	0.59	0.36	1.10
25351	0.46	0.47	1.18
25356	0.46	0.47	1.18
25361	0.22	0.64	1.19
25366	0.22	0.64	1.19
25371	0.06	0.79	1.15
25376	0.06	0.79	1.15
25381	0.06	1.11	1.19
25386	0.06	1.11	1.19
25391	0.14	1.43	1.07
25396	0.14	1.43	1.07
25401	0.14	1.41	0.72
25406	0.14	1.41	0.72
25411	0.03	1.15	0.28
25416	0.03	1.15	0.28
25421	-0.06	0.85	-0.18
25426	-0.06	0.85	-0.18
25431	-0.02	0.67	-0.55
25436	-0.02	0.67	-0.55
25441	0.08	0.60	-0.85
25446	0.08	0.60	-0.85
25451	0.23	0.59	-1.18
25456	0.23	0.59	-1.18
25461	0.37	0.58	-1.52
25466	0.37	0.58	-1.52
25471	0.51	0.55	-1.85
25476	0.51	0.55	-1.85
25481	0.59	0.55	-2.00
25486	0.59	0.55	-2.00
25491	0.49	0.51	-2.00
25496	0.49	0.51	-2.00
25501	0.06	0.44	-2.00
25506	0.06	0.44	-2.00
25511	-0.47	0.30	-1.93
25516	-0.47	0.30	-1.93
25521	-0.65	0.02	-1.29
25526	-0.65	0.02	-1.29
25531	-0.60	-0.35	-0.12
25536	-0.60	-0.35	-0.12
25541	-0.84	-0.55	1.14
25546	-0.84	-0.55	1.14
25551	0.25	0.35	2.00
25556	0.25	0.35	2.00
25561	0.81	1.58	1.01
25566	0.81	1.58	1.01
25571	0.68	0.28	0.94
25576	0.68	0.28	0.94
25581	0.59	0.32	0.81
25586	0.59	0.32	0.81
25591	0.76	0.04	1.57
25596	0.76	0.04	1.57
25601	0.75	-0.37	2.00
25606	0.75	-0.37	2.00
25611	0.46	-0.35	2.00
25616	0.46	-0.35	2.00
25621	0.18	-0.16	1.99
25626	0.18	-0.16	1.99
25631	0.01	0.14	2.00
25636	0.01	0.14	2.00
25641	-0.14	0.46	1.99
25646	-0.14	0.46	1.99
25651	-0.12	0.73	1.68
25656	-0.12	0.73	1.68
25661	-0.07	0.86	0.98
25666	-0.07	0.86	0.98
25671	-0.08	0.89	0.31
25676	-0.08	0.89	0.31
25681	-0.09	0.90	-0.27
25686	-0.09	0.90	-0.27
25691	-0.19	0.97	-0.76
25696	-0.19	0.97	-0.76
25701	-0.27	1.01	-1.13
25706	-0.27	1.01	-1.13
25711	-0.28	1.08	-1.54
25716	-0.28	1.08	-1.54
25721	-0.25	1.17	-1.95
25726	-0.25	1.17	-1.95
25731	-0.11	1.32	-2.00
25736	-0.11	1.32	-2.00
25741	-0.07	1.50	-2.00
25746	-0.07	1.50	-2.00
25751	-0.11	1.59	-2.00
25756	-0.11	1.59	-2.00
25761	-0.21	1.43	-2.00
25766	-0.21	1.43	-2.00
25771	-0.54	0.99	-1.98
25776	-0.54	0.99	-1.98
25781	-1.24	0.55	-1.39
25786	-1.24	0.55	-1.39
25791	-1.93	0.24	-0.12
25796	-1.93	0.24	-0.12
25801	-2.00	-0.09	1.13
25806	-2.00	-0.09	1.13
25811	0.25	-0.03	1.79
25816	0.25	-0.03	1.79
25821	0.46	1.82	1.42
25826	0.46	1.82	1.42
25831	0.23	0.48	1.26
25836	0.23	0.48	1.26
25841	0.50	0.56	1.03
25846	0.50	0.56	1.03
25851	0.52	0.56	1.26
25856	0.52	0.56	1.26
25861	0.59	-0.22	1.17
25866	0.59	-0.22	1.17
25871	0.80	-0.53	1.60
25876	0.80	-0.53	1.60
25881	0.67	-0.36	1.59
25886	0.67	-0.36	1.59
25891	0.50	-0.09	1.41
25896	0.50	-0.09	1.41
25901	0.43	0.18	1.32
25906	0.43	0.18	1.32
25911	0.50	0.38	1.29
25916	0.50	0.38	1.29
25921	0.50	0.54	1.26
25926	0.50	0.54	1.26
25931	0.42	0.69	1.15
25936	0.42	0.69	1.15
25941	0.25	0.86	1.06
25946	0.25	0.86	1.06
25951	0.06	0.99	0.93
25956	0.06	0.99	0.93
25961	-0.09	1.03	0.74
25966	-0.09	1.03	0.74
25971	-0.18	0.99	0.53
25976	-0.18	0.99	0.53
25981	-0.11	0.90	0.23
25986	-0.11	0.90	0.23
25991	-0.01	0.80	-0.12
25996	-0.01	0.80	-0.12
26001	0.08	0.71	-0.46
26006	0.08	0.71	-0.46
26011	0.18	0.66	-0.76
26016	0.18	0.66	-0.76
26021	0.25	0.66	-0.98
26026	0.25	0.66	-0.98
26031	0.31	0.69	-1.16
26036	0.31	0.69	-1.16
26041	0.36	0.80	-1.47
26046	0.36	0.80	-1.47
26051	0.40	0.90	-1.88
26056	0.40	0.90	-1.88
26061	0.39	1.03	-2.00
26066	0.39	1.03	-2.00
26071	-0.04	1.20	-2.00
26076	-0.04	1.20	-2.00
26081	-0.77	1.21	-2.00
26086	-0.77	1.21	-2.00
26091	-1.27	0.89	-1.52
26096	-1.27	0.89	-1.52
26101	-1.39	0.43	0.03
26106	-1.39	0.43	0.03
26111	-1.63	0.08	1.37
26116	-1.63	0.08	1.37
26121	0.10	-0.91	1.96
26126	0.10	-0.91	1.96
26131	0.09	1.37	1.39
26136	0.09	1.37	1.39
26141	0.44	1.24	1.72
26146	0.44	1.24	1.72
26151	0.43	0.32	0.99
26156	0.43	0.32	0.99
26161	0.44	0.23	1.43
26166	0.44	0.23	1.43
26171	0.53	0.14	1.94
26176	0.53	0.14	1.94
26181	0.42	0.20	2.00
26186	0.42	0.20	2.00
26191	0.33	0.26	1.82
26196	0.33	0.26	1.82
26201	0.31	0.25	1.49
26206	0.31	0.25	1.49
26211	0.12	0.30	1.30
26216	0.12	0.30	1.30
26221	-0.06	0.32	1.09
26226	-0.06	0.32	1.09
26231	0.17	0.25	0.87
26236	0.17	0.25	0.87
26241	0.37	0.25	0.65
26246	0.37	0.25	0.65
26251	0.25	0.36	0.46
26256	0.25	0.36	0.46
26261	0.12	0.49	0.24
26266	0.12	0.49	0.24
26271	0.03	0.60	-0.03
26276	0.03	0.60	-0.03
26281	-0.00	0.69	-0.29
26286	-0.00	0.69	-0.29
26291	0.10	0.74	-0.58
26296	0.10	0.74	-0.58
26301	0.33	0.73	-0.86
26306	0.33	0.73	-0.86
26311	0.53	0.77	-1.19
26316	0.53	0.77	-1.19
26321	0.65	0.85	-1.62
26326	0.65	0.85	-1.62
26331	0.70	0.95	-1.95
26336	0.70	0.95	-1.95
26341	0.48	1.12	-2.00
26346	0.48	1.12	-2.00
26351	0.05	1.32	-2.00
26356	0.05	1.32	-2.00
26361	-0.23	1.36	-2.00
26366	-0.23	1.36	-2.00
26371	-0.41	1.16	-1.80
26376	-0.41	1.16	-1.80
26381	-0.70	0.86	-0.92
26386	-0.70	0.86	-0.92
26391	-1.02	0.48	0.09
26396	-1.02	0.48	0.09
26401	-1.37	0.16	1.06
26406	-1.37	0.16	1.06
26411	-1.40	-0.45	1.91
26416	-1.40	-0.45	1.91
26421	-0.27	0.40	1.26
26426	-0.27	0.40	1.26
26431	0.22	1.17	0.93
26436	0.22	1.17	0.93
26441	0.04	0.22	1.95
26446	0.04	0.22	1.95
26451	0.38	0.16	2.00
26456	0.38	0.16	2.00
26461	0.60	0.12	2.00
26466	0.60	0.12	2.00
26471	0.32	-0.02	2.00
26476	0.32	-0.02	2.00
26481	0.09	-0.06	2.00
26486	0.09	-0.06	2.00
26491	0.02	0.04	1.97
26496	0.02	0.04	1.97
26501	-0.14	0.24	1.65
26506	-0.14	0.24	1.65
26511	-0.33	0.44	1.18
26516	-0.33	0.44	1.18
26521	-0.34	0.60	0.66
26526	-0.34	0.60	0.66
26531	-0.30	0.78	0.01
26536	-0.30	0.78	0.01
26541	-0.23	0.92	-0.68
26546	-0.23	0.92	-0.68
26551	-0.08	0.98	-1.35
26556	-0.08	0.98	-1.35
26561	-0.04	1.08	-1.93
26566	-0.04	1.08	-1.93
26571	-0.12	1.36	-2.00
26576	-0.12	1.36	-2.00
26581	-0.19	1.69	-1.99
26586	-0.19	1.69	-1.99
26591	-0.18	1.95	-2.00
26596	-0.18	1.95	-2.00
26601	-0.08	2.00	-2.00
26606	-0.08	2.00	-2.00
26611	-0.33	1.83	-2.00
26616	-0.33	1.83	-2.00
26621	-0.99	1.39	-1.80
26626	-0.99	1.39	-1.80
26631	-1.53	0.78	-0.87
26636	-1.53	0.78	-0.87
26641	-1.89	0.20	0.21
26646	-1.89	0.20	0.21
26651	-1.72	-0.48	1.25
26656	-1.72	-0.48	1.25
26661	-0.01	0.69	0.68
26666	-0.01	0.69	0.68
26671	0.47	1.10	0.81
26676	0.47	1.10	0.81
26681	0.13	0.32	1.25
26686	0.13	0.32	1.25
26691	0.37	0.66	1.75
26696	0.37	0.66	1.75
26701	0.40	0.47	1.49
26706	0.40	0.47	1.49
26711	0.35	0.15	1.76
26716	0.35	0.15	1.76
26721	0.22	-0.18	2.00
26726	0.22	-0.18	2.00
26731	0.26	-0.02	2.00
26736	0.26	-0.02	2.00
26741	0.29	0.18	1.84
26746	0.29	0.18	1.84
26751	0.26	0.29	1.50
26756	0.26	0.29	1.50
26761	0.21	0.42	1.15
26766	0.21	0.42	1.15
26771	0.19	0.56	0.88
26776	0.19	0.56	0.88
26781	0.21	0.66	0.75
26786	0.21	0.66	0.75
26791	0.27	0.73	0.69
26796	0.27	0.73	0.69
26801	0.30	0.76	0.63
26806	0.30	0.76	0.63
26811	0.33	0.73	0.60
26816	0.33	0.73	0.60
26821	0.40	0.62	0.66
26826	0.40	0.62	0.66
26831	0.32	0.49	0.66
26836	0.32	0.49	0.66
26841	0.14	0.38	0.57
26846	0.14	0.38	0.57
26851	0.11	0.30	0.36
26856	0.11	0.30	0.36
26861	0.15	0.29	-0.06
26866	0.15	0.29	-0.06
26871	0.22	0.35	-0.58
26876	0.22	0.35	-0.58
26881	0.27	0.46	-1.02
26886	0.27	0.46	-1.02
26891	0.26	0.64	-1.42
26896	0.26	0.64	-1.42
26901	0.30	0.87	-1.83
26906	0.30	0.87	-1.83
26911	0.23	1.18	-2.00
26916	0.23	1.18	-2.00
26921	0.20	1.36	-2.00
26926	0.20	1.36	-2.00
26931	0.25	1.33	-2.00
26936	0.25	1.33	-2.00
26941	-0.21	1.21	-2.00
26946	-0.21	1.21	-2.00
26951	-1.00	0.81	-1.89
26956	-1.00	0.81	-1.89
26961	-1.46	0.24	-0.89
26966	-1.46	0.24	-0.89
26971	-1.82	-0.15	0.47
26976	-1.82	-0.15	0.47
26981	-1.66	-0.46	1.59
26986	-1.66	-0.46	1.59
26991	0.68	0.29	0.80
26996	0.68	0.29	0.80
27001	0.51	0.81	0.58
27006	0.51	0.81	0.58
27011	0.53	0.28	1.04
27016	0.53	0.28	1.04
27021	0.72	-0.00	1.13
27026	0.72	-0.00	1.13
27031	0.40	-0.03	1.87
27036	0.40	-0.03	1.87
27041	0.51	-0.34	2.00
27046	0.51	-0.34	2.00
27051	0.41	-0.19	1.99
27056	0.41	-0.19	1.99
27061	0.27	0.06	2.00
27066	0.27	0.06	2.00
27071	0.26	0.20	1.96
27076	0.26	0.20	1.96
27081	0.13	0.30	1.46
27086	0.13	0.30	1.46
27091	-0.04	0.38	0.84
27096	-0.04	0.38	0.84
27101	-0.18	0.42	0.42
27106	-0.18	0.42	0.42
27111	-0.26	0.42	0.16
27116	-0.26	0.42	0.16
27121	-0.22	0.38	-0.02
27126	-0.22	0.38	-0.02
27131	-0.21	0.36	-0.24
27136	-0.21	0.36	-0.24
27141	-0.03	0.38	-0.53
27146	-0.03	0.38	-0.53
27151	0.08	0.44	-0.85
27156	0.08	0.44	-0.85
27161	0.20	0.56	-1.19
27166	0.20	0.56	-1.19
27171	0.24	0.71	-1.44
27176	0.24	0.71	-1.44
27181	0.22	0.92	-1.56
27186	0.22	0.92	-1.56
27191	0.30	1.05	-1.44
27196	0.30	1.05	-1.44
27201	0.42	1.11	-1.22
27206	0.42	1.11	-1.22
27211	0.39	1.20	-1.20
27216	0.39	1.20	-1.20
27221	0.26	1.29	-1.28
27226	0.26	1.29	-1.28
27231	0.20	1.33	-1.35
27236	0.20	1.33	-1.35
27241	0.02	1.32	-1.31
27246	0.02	1.32	-1.31
27251	-0.23	1.10	-0.99
27256	-0.23	1.10	-0.99
27261	-0.54	0.63	-0.30
27266	-0.54	0.63	-0.30
27271	-0.80	0.11	0.50
27276	-0.80	0.11	0.50
27281	-1.12	-0.34	1.12
27286	-1.12	-0.34	1.12
27291	-0.68	-1.07	1.86
27296	-0.68	-1.07	1.86
27301	1.61	-1.08	2.00
27306	1.61	-1.08	2.00
27311	1.84	1.71	1.71
27316	1.84	1.71	1.71
27321	0.97	-0.49	1.89
27326	0.97	-0.49	1.89
27331	0.76	-1.36	2.00
27336	0.76	-1.36	2.00
27341	0.50	-1.23	2.00
27346	0.50	-1.23	2.00
27351	0.20	-0.62	2.00
27356	0.20	-0.62	2.00
27361	-0.01	-0.12	2.00
27366	-0.01	-0.12	2.00
27371	-0.16	0.22	1.97
27376	-0.16	0.22	1.97
27381	-0.26	0.60	1.54
27386	-0.26	0.60	1.54
27391	-0.34	0.89	0.85
27396	-0.34	0.89	0.85
27401	-0.30	1.05	0.58
27406	-0.30	1.05	0.58
27411	-0.43	1.09	-0.09
27416	-0.43	1.09	-0.09
27421	-0.53	1.07	-0.96
27426	-0.53	1.07	-0.96
27431	-0.47	1.06	-1.49
27436	-0.47	1.06	-1.49
27441	-0.30	1.21	-1.91
27446	-0.30	1.21	-1.91
27451	-0.06	1.51	-2.00
27456	-0.06	1.51	-2.00
27461	0.15	1.77	-2.00
27466	0.15	1.77	-2.00
27471	-0.04	1.98	-2.00
27476	-0.04	1.98	-2.00
27481	-0.61	2.00	-2.00
27486	-0.61	2.00	-2.00
27491	-1.12	1.76	-2.00
27496	-1.12	1.76	-2.00
27501	-1.56	1.30	-1.89
27506	-1.56	1.30	-1.89
27511	-2.00	0.84	-0.76
27516	-2.00	0.84	-0.76
27521	-2.00	0.40	0.84
27526	-2.00	0.40	0.84
27531	-1.16	-0.70	1.93
27536	-1.16	-0.70	1.93
27541	1.17	0.68	1.72
27546	1.17	0.68	1.72
27551	0.67	0.85	1.32
27556	0.67	0.85	1.32
27561	0.79	0.20	-0.11
27566	0.79	0.20	-0.11
27571	0.98	0.39	0.57
27576	0.98	0.39	0.57
27581	0.69	0.42	1.27
27586	0.69	0.42	1.27
27591	0.37	0.22	1.36
27596	0.37	0.22	1.36
27601	0.49	-0.59	1.34
27606	0.49	-0.59	1.34
27611	0.51	-0.74	1.42
27616	0.51	-0.74	1.42
27621	0.57	-0.17	1.21
27626	0.57	-0.17	1.21
27631	0.54	0.24	0.90
27636	0.54	0.24	0.90
27641	0.39	0.41	0.64
27646	0.39	0.41	0.64
27651	0.29	0.57	0.38
27656	0.29	0.57	0.38
27661	0.23	0.67	0.25
27666	0.23	0.67	0.25
27671	0.22	0.70	0.29
27676	0.22	0.70	0.29
27681	0.25	0.72	0.34
27686	0.25	0.72	0.34
27691	0.25	0.73	0.39
27696	0.25	0.73	0.39
27701	0.32	0.65	0.42
27706	0.32	0.65	0.42
27711	0.39	0.53	0.45
27716	0.39	0.53	0.45
27721	0.40	0.38	0.54
27726	0.40	0.38	0.54
27731	0.36	0.24	0.66
27736	0.36	0.24	0.66
27741	0.39	0.11	0.77
27746	0.39	0.11	0.77
27751	0.48	0.01	0.88
27756	0.48	0.01	0.88
27761	0.52	-0.06	0.97
27766	0.52	-0.06	0.97
27771	0.47	-0.08	1.03
27776	0.47	-0.08	1.03
27781	0.40	-0.04	1.10
27786	0.40	-0.04	1.10
27791	0.37	0.02	1.09
27796	0.37	0.02	1.09
27801	0.33	0.09	1.01
27806	0.33	0.09	1.01
27811	0.30	0.16	0.92
27816	0.30	0.16	0.92
27821	0.32	0.22	0.88
27826	0.32	0.22	0.88
27831	0.40	0.23	0.89
27836	0.40	0.23	0.89
27841	0.43	0.19	0.92
27846	0.43	0.19	0.92
27851	0.41	0.17	0.94
27856	0.41	0.17	0.94
27861	0.39	0.13	0.97
27866	0.39	0.13	0.97
27871	0.43	0.08	0.98
27876	0.43	0.08	0.98
27881	0.42	0.07	0.98
27886	0.42	0.07	0.98
27891	0.36	0.07	0.97
27896	0.36	0.07	0.97
27901	0.32	0.09	0.94
27906	0.32	0.09	0.94
27911	0.30	0.11	0.93
27916	0.30	0.11	0.93
27921	0.29	0.12	0.96
27926	0.29	0.12	0.96
27931	0.28	0.13	0.97
27936	0.28	0.13	0.97
27941	0.21	0.12	1.00
27946	0.21	0.12	1.00
27951	0.16	0.10	0.99
27956	0.16	0.10	0.99
27961	0.17	0.09	0.94
27966	0.17	0.09	0.94
27971	0.18	0.08	0.90
27976	0.18	0.08	0.90
27981	0.18	0.10	0.91
27986	0.18	0.10	0.91
27991	0.16	0.15	0.93
27996	0.16	0.15	0.93
28001	0.10	0.22	0.94
28006	0.10	0.22	0.94
28011	0.05	0.28	0.94
28016	0.05	0.28	0.94
28021	0.04	0.31	0.95
28026	0.04	0.31	0.95
28031	0.00	0.34	0.96
28036	0.00	0.34	0.96
28041	-0.03	0.36	0.98
28046	-0.03	0.36	0.98
28051	-0.03	0.36	1.01
28056	-0.03	0.36	1.01
28061	-0.01	0.37	1.05
28066	-0.01	0.37	1.05
28071	-0.04	0.41	1.05
28076	-0.04	0.41	1.05
28081	-0.05	0.44	1.00
28086	-0.05	0.44	1.00
28091	0.01	0.44	0.97
28096	0.01	0.44	0.97
28101	0.09	0.39	0.96
28106	0.09	0.39	0.96
28111	0.16	0.28	0.94
28116	0.16	0.28	0.94
28121	0.12	0.19	0.94
28126	0.12	0.19	0.94
28131	0.04	0.15	0.98
28136	0.04	0.15	0.98
28141	-0.02	0.14	1.04
28146	-0.02	0.14	1.04
28151	-0.05	0.18	1.08
28156	-0.05	0.18	1.08
28161	-0.06	0.25	1.08
28166	-0.06	0.25	1.08
28171	-0.03	0.31	1.07
28176	-0.03	0.31	1.07
28181	0.02	0.34	1.08
28186	0.02	0.34	1.08
28191	0.04	0.36	1.07
28196	0.04	0.36	1.07
28201	0.08	0.37	1.04
28206	0.08	0.37	1.04
28211	0.17	0.35	0.98
28216	0.17	0.35	0.98
28221	0.18	0.34	0.92
28226	0.18	0.34	0.92
28231	0.12	0.33	0.89
28236	0.12	0.33	0.89
28241	0.10	0.34	1.00
28246	0.10	0.34	1.00
28251	0.09	0.37	1.11
28256	0.09	0.37	1.11
28261	0.05	0.41	1.15
28266	0.05	0.41	1.15
28271	-0.02	0.42	1.16
28276	-0.02	0.42	1.16
28281	-0.02	0.39	1.21
28286	-0.02	0.39	1.21
28291	-0.03	0.38	1.22
28296	-0.03	0.38	1.22
28301	0.00	0.42	1.15
28306	0.00	0.42	1.15
28311	0.06	0.50	1.03
28316	0.06	0.50	1.03
28321	0.08	0.52	0.87
28326	0.08	0.52	0.87
28331	0.38	0.32	0.67
28336	0.38	0.32	0.67
28341	0.18	0.26	0.70
28346	0.18	0.26	0.70
28351	-0.20	0.20	0.75
28356	-0.20	0.20	0.75
28361	-0.11	0.11	0.97
28366	-0.11	0.11	0.97
28371	0.17	-0.00	0.99
28376	0.17	-0.00	0.99
28381	0.21	0.09	1.00
28386	0.21	0.09	1.00
28391	0.04	0.27	1.01
28396	0.04	0.27	1.01
28401	0.02	0.47	0.99
28406	0.02	0.47	0.99
28411	0.39	0.85	1.20
28416	0.39	0.85	1.20
28421	0.58	0.90	1.92
28426	0.58	0.90	1.92
28431	-0.21	0.74	1.70
28436	-0.21	0.74	1.70
28441	0.00	0.62	1.19
28446	0.00	0.62	1.19
28451	0.21	0.53	0.91
28456	0.21	0.53	0.91
28461	0.14	0.44	0.83
28466	0.14	0.44	0.83
28471	0.25	0.34	0.76
28476	0.25	0.34	0.76
28481	0.33	0.32	0.70
28486	0.33	0.32	0.70
28491	0.44	0.31	0.65
28496	0.44	0.31	0.65
28501	0.66	0.28	0.61
28506	0.66	0.28	0.61
28511	0.69	0.23	0.46
28516	0.69	0.23	0.46
28521	0.66	0.13	0.03
28526	0.66	0.13	0.03
28531	0.63	-0.01	-0.20
28536	0.63	-0.01	-0.20
28541	0.47	-0.11	-0.42
28546	0.47	-0.11	-0.42
28551	0.28	0.15	-0.85
28556	0.28	0.15	-0.85
28561	0.24	0.61	-0.39
28566	0.24	0.61	-0.39
28571	-0.11	0.82	-0.06
28576	-0.11	0.82	-0.06
28581	-0.23	0.88	0.16
28586	-0.23	0.88	0.16
28591	-0.10	0.82	0.34
28596	-0.10	0.82	0.34
28601	-0.02	0.79	0.48
28606	-0.02	0.79	0.48
28611	0.05	0.78	1.02
28616	0.05	0.78	1.02
28621	0.30	0.69	1.86
28626	0.30	0.69	1.86
28631	-0.38	0.95	2.00
28636	-0.38	0.95	2.00
28641	-0.32	1.21	1.99
28646	-0.32	1.21	1.99
28651	0.16	1.04	1.97
28656	0.16	1.04	1.97
28661	0.51	0.90	1.71
28666	0.51	0.90	1.71
28671	0.43	0.70	1.30
28676	0.43	0.70	1.30
28681	0.13	0.41	0.84
28686	0.13	0.41	0.84
28691	-0.05	0.28	0.49
28696	-0.05	0.28	0.49
28701	0.06	0.23	0.36
28706	0.06	0.23	0.36
28711	0.14	0.18	0.45
28716	0.14	0.18	0.45
28721	0.11	0.15	0.65
28726	0.11	0.15	0.65
28731	-0.05	0.15	1.11
28736	-0.05	0.15	1.11
28741	0.17	0.20	1.64
28746	0.17	0.20	1.64
28751	0.51	0.43	1.70
28756	0.51	0.43	1.70
28761	-0.08	1.10	1.06
28766	-0.08	1.10	1.06
28771	-0.28	1.39	0.75
28776	-0.28	1.39	0.75
28781	0.26	1.18	0.97
28786	0.26	1.18	0.97
28791	0.36	0.97	1.28
28796	0.36	0.97	1.28
28801	0.15	0.78	1.35
28806	0.15	0.78	1.35
28811	0.11	0.80	1.27
28816	0.11	0.80	1.27
28821	0.16	0.83	1.36
28826	0.16	0.83	1.36
28831	0.25	0.74	1.55
28836	0.25	0.74	1.55
28841	0.31	0.58	1.40
28846	0.31	0.58	1.40
28851	0.30	0.43	1.05
28856	0.30	0.43	1.05
28861	0.27	0.21	0.65
28866	0.27	0.21	0.65
28871	0.23	-0.10	0.25
28876	0.23	-0.10	0.25
28881	0.30	-0.33	0.13
28886	0.30	-0.33	0.13
28891	0.60	-0.31	0.29
28896	0.60	-0.31	0.29
28901	0.68	-0.28	0.31
28906	0.68	-0.28	0.31
28911	0.57	-0.16	0.38
28916	0.57	-0.16	0.38
28921	0.54	0.01	0.40
28926	0.54	0.01	0.40
28931	0.61	0.15	0.31
28936	0.61	0.15	0.31
28941	0.73	0.22	0.27
28946	0.73	0.22	0.27
28951	0.74	0.25	0.27
28956	0.74	0.25	0.27
28961	0.67	0.31	0.25
28966	0.67	0.31	0.25
28971	0.57	0.39	0.12
28976	0.57	0.39	0.12
28981	0.50	0.44	-0.08
28986	0.50	0.44	-0.08
28991	0.54	0.50	-0.17
28996	0.54	0.50	-0.17
29001	0.64	0.56	-0.11
29006	0.64	0.56	-0.11
29011	0.72	0.54	0.00
29016	0.72	0.54	0.00
29021	0.73	0.53	0.15
29026	0.73	0.53	0.15
29031	0.70	0.52	0.27
29036	0.70	0.52	0.27
29041	0.65	0.51	0.32
29046	0.65	0.51	0.32
29051	0.60	0.55	0.25
29056	0.60	0.55	0.25
29061	0.62	0.61	0.13
29066	0.62	0.61	0.13
29071	0.63	0.63	-0.05
29076	0.63	0.63	-0.05
29081	0.55	0.62	-0.28
29086	0.55	0.62	-0.28
29091	0.42	0.65	-0.53
29096	0.42	0.65	-0.53
29101	0.25	0.75	-0.87
29106	0.25	0.75	-0.87
29111	-0.02	0.88	-1.41
29116	-0.02	0.88	-1.41
29121	-0.39	0.82	-2.00
29126	-0.39	0.82	-2.00
29131	-0.67	0.90	-2.00
29136	-0.67	0.90	-2.00
29141	-0.94	0.97	-1.99
29146	-0.94	0.97	-1.99
29151	-1.45	0.97	-2.00
29156	-1.45	0.97	-2.00
29161	-1.96	0.71	-1.98
29166	-1.96	0.71	-1.98
29171	-2.00	0.26	-1.01
29176	-2.00	0.26	-1.01
29181	-1.99	-0.05	1.06
29186	-1.99	-0.05	1.06
29191	-2.00	0.15	2.00
29196	-2.00	0.15	2.00
29201	-1.44	0.03	2.00
29206	-1.44	0.03	2.00
29211	0.30	-0.54	1.51
29216	0.30	-0.54	1.51
29221	0.89	1.82	0.39
29226	0.89	1.82	0.39
29231	0.68	0.66	0.18
29236	0.68	0.66	0.18
29241	1.34	0.06	-0.26
29246	1.34	0.06	-0.26
29251	1.46	-0.12	-0.05
29256	1.46	-0.12	-0.05
29261	0.95	0.06	-0.14
29266	0.95	0.06	-0.14
29271	0.78	-0.15	0.07
29276	0.78	-0.15	0.07
29281	0.80	-0.54	0.55
29286	0.80	-0.54	0.55
29291	0.84	-0.98	1.28
29296	0.84	-0.98	1.28
29301	0.82	-1.10	1.87
29306	0.82	-1.10	1.87
29311	0.68	-0.95	2.00
29316	0.68	-0.95	2.00
29321	0.61	-0.70	2.00
29326	0.61	-0.70	2.00
29331	0.54	-0.36	1.95
29336	0.54	-0.36	1.95
29341	0.43	0.06	1.94
29346	0.43	0.06	1.94
29351	0.38	0.44	1.83
29356	0.38	0.44	1.83
29361	0.32	0.67	1.46
29366	0.32	0.67	1.46
29371	0.26	0.73	1.02
29376	0.26	0.73	1.02
29381	0.32	0.62	0.71
29386	0.32	0.62	0.71
29391	0.23	0.44	0.52
29396	0.23	0.44	0.52
29401	0.18	0.37	0.37
29406	0.18	0.37	0.37
29411	0.09	0.53	0.07
29416	0.09	0.53	0.07
29421	0.04	0.74	-0.47
29426	0.04	0.74	-0.47
29431	0.01	0.87	-0.94
29436	0.01	0.87	-0.94
29441	0.20	0.90	-1.21
29446	0.20	0.90	-1.21
29451	0.32	0.79	-1.22
29456	0.32	0.79	-1.22
29461	0.29	0.52	-1.11
29466	0.29	0.52	-1.11
29471	0.33	0.21	-0.89
29476	0.33	0.21	-0.89
29481	0.56	0.05	-0.50
29486	0.56	0.05	-0.50
29491	0.62	0.03	-0.19
29496	0.62	0.03	-0.19
29501	0.59	0.07	-0.17
29506	0.59	0.07	-0.17
29511	0.75	0.17	-0.27
29516	0.75	0.17	-0.27
29521	0.89	0.21	-0.31
29526	0.89	0.21	-0.31
29531	1.04	0.22	-0.32
29536	1.04	0.22	-0.32
29541	1.04	0.21	-0.28
29546	1.04	0.21	-0.28
29551	1.18	0.11	-0.02
29556	1.18	0.11	-0.02
29561	1.32	-0.04	0.27
29566	1.32	-0.04	0.27
29571	1.13	-0.23	0.27
29576	1.13	-0.23	0.27
29581	0.93	-0.38	0.07
29586	0.93	-0.38	0.07
29591	0.80	-0.43	-0.21
29596	0.80	-0.43	-0.21
29601	0.78	-0.40	-0.42
29606	0.78	-0.40	-0.42
29611	0.81	-0.33	-0.52
29616	0.81	-0.33	-0.52
29621	0.81	-0.23	-0.52
29626	0.81	-0.23	-0.52
29631	0.83	-0.13	-0.51
29636	0.83	-0.13	-0.51
29641	0.86	-0.07	-0.49
29646	0.86	-0.07	-0.49
29651	0.87	-0.05	-0.41
29656	0.87	-0.05	-0.41
29661	0.93	-0.07	-0.24
29666	0.93	-0.07	-0.24
29671	0.95	-0.06	-0.11
29676	0.95	-0.06	-0.11
29681	0.92	-0.01	-0.05
29686	0.92	-0.01	-0.05
29691	0.88	0.06	-0.11
29696	0.88	0.06	-0.11
29701	0.84	0.16	-0.23
29706	0.84	0.16	-0.23
29711	0.75	0.27	-0.33
29716	0.75	0.27	-0.33
29721	0.62	0.38	-0.47
29726	0.62	0.38	-0.47
29731	0.43	0.56	-0.70
29736	0.43	0.56	-0.70
29741	0.19	0.78	-1.03
29746	0.19	0.78	-1.03
29751	0.03	0.96	-1.49
29756	0.03	0.96	-1.49
29761	-0.18	1.01	-1.98
29766	-0.18	1.01	-1.98
29771	-0.55	1.04	-2.00
29776	-0.55	1.04	-2.00
29781	-1.13	1.08	-1.99
29786	-1.13	1.08	-1.99
29791	-1.73	0.87	-2.00
29796	-1.73	0.87	-2.00
29801	-2.00	0.56	-1.69
29806	-2.00	0.56	-1.69
29811	-2.00	0.25	-0.08
29816	-2.00	0.25	-0.08
29821	-1.99	0.24	1.76
29826	-1.99	0.24	1.76
29831	-1.95	0.37	2.00
29836	-1.95	0.37	2.00
29841	-0.07	0.12	1.95
29846	-0.07	0.12	1.95
29851	1.61	0.59	0.08
29856	1.61	0.59	0.08
29861	0.43	0.12	0.69
29866	0.43	0.12	0.69
29871	0.37	0.11	0.83
29876	0.37	0.11	0.83
29881	0.84	0.10	1.01
29886	0.84	0.10	1.01
29891	0.75	0.10	0.84
29896	0.75	0.10	0.84
29901	0.65	0.03	1.02
29906	0.65	0.03	1.02
29911	0.78	-0.31	1.86
29916	0.78	-0.31	1.86
29921	0.78	-0.57	1.85
29926	0.78	-0.57	1.85
29931	0.89	-0.49	1.47
29936	0.89	-0.49	1.47
29941	0.79	-0.47	1.39
29946	0.79	-0.47	1.39
29951	0.56	-0.43	1.29
29956	0.56	-0.43	1.29
29961	0.46	-0.29	1.03
29966	0.46	-0.29	1.03
29971	0.43	-0.09	0.70
29976	0.43	-0.09	0.70
29981	0.41	0.07	0.46
29986	0.41	0.07	0.46
29991	0.53	0.16	0.29
29996	0.53	0.16	0.29
30001	0.60	0.24	0.20
30006	0.60	0.24	0.20
30011	0.60	0.26	0.21
30016	0.60	0.26	0.21
30021	0.65	0.21	0.27
30026	0.65	0.21	0.27
30031	0.70	0.14	0.28
30036	0.70	0.14	0.28
30041	0.71	0.05	0.30
30046	0.71	0.05	0.30
30051	0.71	-0.01	0.33
30056	0.71	-0.01	0.33
30061	0.73	-0.04	0.38
30066	0.73	-0.04	0.38
30071	0.67	-0.05	0.44
30076	0.67	-0.05	0.44
30081	0.73	-0.02	0.48
30086	0.73	-0.02	0.48
30091	0.72	0.06	0.45
30096	0.72	0.06	0.45
30101	0.66	0.10	0.36
30106	0.66	0.10	0.36
30111	0.76	0.06	0.28
30116	0.76	0.06	0.28
30121	0.83	0.02	0.26
30126	0.83	0.02	0.26
30131	0.71	0.02	0.19
30136	0.71	0.02	0.19
30141	0.64	0.04	0.08
30146	0.64	0.04	0.08
30151	0.55	0.08	-0.06
30156	0.55	0.08	-0.06
30161	0.58	0.13	-0.20
30166	0.58	0.13	-0.20
30171	0.70	0.15	-0.23
30176	0.70	0.15	-0.23
30181	0.67	0.17	-0.21
30186	0.67	0.17	-0.21
30191	0.66	0.18	-0.22
30196	0.66	0.18	-0.22
30201	0.67	0.19	-0.30
30206	0.67	0.19	-0.30
30211	0.63	0.22	-0.41
30216	0.63	0.22	-0.41
30221	0.62	0.28	-0.50
30226	0.62	0.28	-0.50
30231	0.59	0.36	-0.56
30236	0.59	0.36	-0.56
30241	0.56	0.44	-0.68
30246	0.56	0.44	-0.68
30251	0.40	0.57	-0.98
30256	0.40	0.57	-0.98
30261	0.23	0.76	-1.46
30266	0.23	0.76	-1.46
30271	-0.03	0.97	-1.98
30276	-0.03	0.97	-1.98
30281	-0.62	1.17	-2.00
30286	-0.62	1.17	-2.00
30291	-1.24	1.18	-1.99
30296	-1.24	1.18	-1.99
30301	-1.58	1.00	-2.00
30306	-1.58	1.00	-2.00
30311	-1.91	0.76	-1.50
30316	-1.91	0.76	-1.50
30321	-2.00	0.48	0.34
30326	-2.00	0.48	0.34
30331	-2.00	0.07	1.90
30336	-2.00	0.07	1.90
30341	-0.35	-1.04	2.00
30346	-0.35	-1.04	2.00
30351	1.49	-1.22	1.27
30356	1.49	-1.22	1.27
30361	1.16	0.85	-1.44
30366	1.16	0.85	-1.44
30371	0.64	0.67	0.30
30376	0.64	0.67	0.30
30381	0.89	-0.07	1.30
30386	0.89	-0.07	1.30
30391	0.80	0.03	0.67
30396	0.80	0.03	0.67
30401	0.70	0.04	0.70
30406	0.70	0.04	0.70
30411	0.72	-0.06	0.59
30416	0.72	-0.06	0.59
30421	0.77	-0.14	0.70
30426	0.77	-0.14	0.70
30431	0.82	-0.16	1.09
30436	0.82	-0.16	1.09
30441	0.73	-0.11	1.14
30446	0.73	-0.11	1.14
30451	0.84	-0.44	1.00
30456	0.84	-0.44	1.00
30461	0.66	-0.53	1.01
30466	0.66	-0.53	1.01
30471	0.44	-0.41	0.91
30476	0.44	-0.41	0.91
30481	0.46	-0.24	0.70
30486	0.46	-0.24	0.70
30491	0.46	-0.11	0.54
30496	0.46	-0.11	0.54
30501	0.48	-0.02	0.50
30506	0.48	-0.02	0.50
30511	0.53	0.03	0.50
30516	0.53	0.03	0.50
30521	0.56	0.05	0.59
30526	0.56	0.05	0.59
30531	0.64	0.04	0.74
30536	0.64	0.04	0.74
30541	0.70	-0.00	0.89
30546	0.70	-0.00	0.89
30551	0.73	-0.10	1.08
30556	0.73	-0.10	1.08
30561	0.83	-0.19	1.25
30566	0.83	-0.19	1.25
30571	0.91	-0.24	1.31
30576	0.91	-0.24	1.31
30581	0.70	-0.27	1.38
30586	0.70	-0.27	1.38
30591	0.56	-0.27	1.48
30596	0.56	-0.27	1.48
30601	0.59	-0.25	1.57
30606	0.59	-0.25	1.57
30611	0.62	-0.23	1.63
30616	0.62	-0.23	1.63
30621	0.62	-0.21	1.59
30626	0.62	-0.21	1.59
30631	0.56	-0.17	1.41
30636	0.56	-0.17	1.41
30641	0.53	-0.12	1.16
30646	0.53	-0.12	1.16
30651	0.40	-0.03	0.95
30656	0.40	-0.03	0.95
30661	0.24	0.04	0.75
30666	0.24	0.04	0.75
30671	0.26	0.12	0.42
30676	0.26	0.12	0.42
30681	0.28	0.16	0.04
30686	0.28	0.16	0.04
30691	0.34	0.15	-0.39
30696	0.34	0.15	-0.39
30701	0.32	0.15	-0.73
30706	0.32	0.15	-0.73
30711	0.40	0.15	-0.92
30716	0.40	0.15	-0.92
30721	0.44	0.16	-1.00
30726	0.44	0.16	-1.00
30731	0.54	0.17	-1.04
30736	0.54	0.17	-1.04
30741	0.53	0.15	-1.08
30746	0.53	0.15	-1.08
30751	0.55	0.22	-1.08
30756	0.55	0.22	-1.08
30761	0.57	0.27	-0.89
30766	0.57	0.27	-0.89
30771	0.71	0.20	-0.56
30776	0.71	0.20	-0.56
30781	0.77	0.18	-0.17
30786	0.77	0.18	-0.17
30791	0.74	0.21	-0.00
30796	0.74	0.21	-0.00
30801	0.73	0.22	-0.04
30806	0.73	0.22	-0.04
30811	0.72	0.24	-0.02
30816	0.72	0.24	-0.02
30821	0.68	0.28	-0.03
30826	0.68	0.28	-0.03
30831	0.63	0.36	-0.16
30836	0.63	0.36	-0.16
30841	0.62	0.46	-0.38
30846	0.62	0.46	-0.38
30851	0.60	0.54	-0.54
30856	0.60	0.54	-0.54
30861	0.58	0.61	-0.64
30866	0.58	0.61	-0.64
30871	0.50	0.69	-0.85
30876	0.50	0.69	-0.85
30881	0.32	0.84	-1.27
30886	0.32	0.84	-1.27
30891	0.10	0.97	-1.88
30896	0.10	0.97	-1.88
30901	-0.20	0.88	-2.00
30906	-0.20	0.88	-2.00
30911	-0.76	0.65	-2.00
30916	-0.76	0.65	-2.00
30921	-1.35	0.39	-1.98
30926	-1.35	0.39	-1.98
30931	-1.83	0.15	-1.28
30936	-1.83	0.15	-1.28
30941	-2.00	0.06	0.29
30946	-2.00	0.06	0.29
30951	-2.00	0.10	1.67
30956	-2.00	0.10	1.67
30961	-0.78	-0.17	2.00
30966	-0.78	-0.17	2.00
30971	1.83	-0.78	1.67
30976	1.83	-0.78	1.67
30981	0.73	0.03	0.00
30986	0.73	0.03	0.00
30991	0.67	0.08	0.22
30996	0.67	0.08	0.22
31001	1.16	-0.03	0.77
31006	1.16	-0.03	0.77
31011	0.94	0.08	0.40
31016	0.94	0.08	0.40
31021	0.79	0.01	0.37
31026	0.79	0.01	0.37
31031	0.76	-0.03	0.46
31036	0.76	-0.03	0.46
31041	0.75	-0.09	0.60
31046	0.75	-0.09	0.60
31051	0.73	-0.11	0.65
31056	0.73	-0.11	0.65
31061	0.69	-0.13	0.74
31066	0.69	-0.13	0.74
31071	0.68	-0.13	0.70
31076	0.68	-0.13	0.70
31081	0.55	-0.05	0.63
31086	0.55	-0.05	0.63
31091	0.51	-0.05	0.70
31096	0.51	-0.05	0.70
31101	0.52	-0.09	0.79
31106	0.52	-0.09	0.79
31111	0.50	-0.09	0.79
31116	0.50	-0.09	0.79
31121	0.51	-0.22	1.00
31126	0.51	-0.22	1.00
31131	0.49	-0.24	1.03
31136	0.49	-0.24	1.03
31141	0.50	-0.32	0.86
31146	0.50	-0.32	0.86
31151	0.51	-0.25	0.73
31156	0.51	-0.25	0.73
31161	0.53	-0.19	0.66
31166	0.53	-0.19	0.66
31171	0.52	-0.16	0.65
31176	0.52	-0.16	0.65
31181	0.53	-0.15	0.74
31186	0.53	-0.15	0.74
31191	0.66	-0.19	0.87
31196	0.66	-0.19	0.87
31201	0.79	-0.27	1.04
31206	0.79	-0.27	1.04
31211	0.79	-0.38	1.21
31216	0.79	-0.38	1.21
31221	0.79	-0.46	1.27
31226	0.79	-0.46	1.27
31231	0.76	-0.54	1.23
31236	0.76	-0.54	1.23
31241	0.80	-0.61	1.14
31246	0.80	-0.61	1.14
31251	0.77	-0.62	1.06
31256	0.77	-0.62	1.06
31261	0.76	-0.64	1.02
31266	0.76	-0.64	1.02
31271	0.80	-0.60	0.91
31276	0.80	-0.60	0.91
31281	0.73	-0.53	0.78
31286	0.73	-0.53	0.78
31291	0.52	-0.45	0.65
31296	0.52	-0.45	0.65
31301	0.38	-0.36	0.55
31306	0.38	-0.36	0.55
31311	0.38	-0.24	0.45
31316	0.38	-0.24	0.45
31321	0.39	-0.11	0.37
31326	0.39	-0.11	0.37
31331	0.36	0.02	0.30
31336	0.36	0.02	0.30
31341	0.31	0.12	0.23
31346	0.31	0.12	0.23
31351	0.32	0.19	0.16
31356	0.32	0.19	0.16
31361	0.35	0.26	0.10
31366	0.35	0.26	0.10
31371	0.37	0.29	0.07
31376	0.37	0.29	0.07
31381	0.40	0.32	0.05
31386	0.40	0.32	0.05
31391	0.36	0.38	0.04
31396	0.36	0.38	0.04
31401	0.28	0.45	0.03
31406	0.28	0.45	0.03
31411	0.17	0.47	0.15
31416	0.17	0.47	0.15
31421	0.05	0.45	0.35
31426	0.05	0.45	0.35
31431	0.19	0.53	0.13
31436	0.19	0.53	0.13
31441	0.33	0.63	-0.02
31446	0.33	0.63	-0.02
31451	0.23	0.61	0.15
31456	0.23	0.61	0.15
31461	0.13	0.54	0.36
31466	0.13	0.54	0.36
31471	0.13	0.51	0.49
31476	0.13	0.51	0.49
31481	0.14	0.51	0.60
31486	0.14	0.51	0.60
31491	0.11	0.49	0.73
31496	0.11	0.49	0.73
31501	0.07	0.49	0.82
31506	0.07	0.49	0.82
31511	0.00	0.51	0.91
31516	0.00	0.51	0.91
31521	-0.09	0.55	0.98
31526	-0.09	0.55	0.98
31531	-0.15	0.59	1.00
31536	-0.15	0.59	1.00
31541	-0.17	0.61	1.00
31546	-0.17	0.61	1.00
31551	-0.18	0.63	1.04
31556	-0.18	0.63	1.04
31561	-0.19	0.66	1.09
31566	-0.19	0.66	1.09
31571	-0.18	0.68	1.17
31576	-0.18	0.68	1.17
31581	-0.16	0.65	1.32
31586	-0.16	0.65	1.32
31591	-0.14	0.59	1.47
31596	-0.14	0.59	1.47
31601	-0.18	0.55	1.54
31606	-0.18	0.55	1.54
31611	-0.29	0.55	1.59
31616	-0.29	0.55	1.59
31621	-0.42	0.60	1.61
31626	-0.42	0.60	1.61
31631	-0.60	0.67	1.66
31636	-0.60	0.67	1.66
31641	-0.71	0.74	1.76
31646	-0.71	0.74	1.76
31651	-0.56	0.74	1.79
31656	-0.56	0.74	1.79
31661	-0.38	0.68	1.78
31666	-0.38	0.68	1.78
31671	-0.32	0.60	1.81
31676	-0.32	0.60	1.81
31681	-0.34	0.48	1.83
31686	-0.34	0.48	1.83
31691	-0.35	0.36	1.92
31696	-0.35	0.36	1.92
31701	-0.36	0.20	2.00
31706	-0.36	0.20	2.00
31711	-0.27	-0.14	2.00
31716	-0.27	-0.14	2.00
31721	-0.61	-0.02	2.00
31726	-0.61	-0.02	2.00
31731	-0.62	0.04	1.92
31736	-0.62	0.04	1.92
31741	-0.59	0.11	1.45
31746	-0.59	0.11	1.45
31751	-0.58	0.25	0.96
31756	-0.58	0.25	0.96
31761	-0.43	0.35	0.58
31766	-0.43	0.35	0.58
31771	-0.28	0.40	0.18
31776	-0.28	0.40	0.18
31781	-0.18	0.40	-0.16
31786	-0.18	0.40	-0.16
31791	-0.09	0.42	-0.30
31796	-0.09	0.42	-0.30
31801	-0.01	0.48	-0.49
31806	-0.01	0.48	-0.49
31811	0.03	0.52	-0.70
31816	0.03	0.52	-0.70
31821	0.15	0.47	-0.86
31826	0.15	0.47	-0.86
31831	0.32	0.38	-0.89
31836	0.32	0.38	-0.89
31841	0.30	0.36	-0.80
31846	0.30	0.36	-0.80
31851	0.19	0.39	-0.72
31856	0.19	0.39	-0.72
31861	0.17	0.44	-0.64
31866	0.17	0.44	-0.64
31871	0.23	0.46	-0.54
31876	0.23	0.46	-0.54
31881	0.22	0.48	-0.46
31886	0.22	0.48	-0.46
31891	0.16	0.50	-0.38
31896	0.16	0.50	-0.38
31901	0.11	0.55	-0.28
31906	0.11	0.55	-0.28
31911	0.08	0.61	-0.16
31916	0.08	0.61	-0.16
31921	0.05	0.68	0.02
31926	0.05	0.68	0.02
31931	0.00	0.68	0.29
31936	0.00	0.68	0.29
31941	-0.10	0.63	0.80
31946	-0.10	0.63	0.80
31951	-0.36	0.57	1.53
31956	-0.36	0.57	1.53
31961	-0.43	0.51	2.00
31966	-0.43	0.51	2.00
31971	-0.36	0.35	2.00
31976	-0.36	0.35	2.00
31981	-0.56	0.26	1.99
31986	-0.56	0.26	1.99
31991	-0.69	0.21	2.00
31996	-0.69	0.21	2.00
32001	-0.55	0.13	2.00
32006	-0.55	0.13	2.00
32011	-0.22	-0.01	2.00
32016	-0.22	-0.01	2.00
32021	-0.18	-0.10	2.00
32026	-0.18	-0.10	2.00
32031	-0.27	-0.06	2.00
32036	-0.27	-0.06	2.00
32041	-0.31	0.03	1.79
32046	-0.31	0.03	1.79
32051	-0.36	0.13	1.35
32056	-0.36	0.13	1.35
32061	-0.35	0.18	1.06
32066	-0.35	0.18	1.06
32071	-0.23	0.23	0.83
32076	-0.23	0.23	0.83
32081	-0.20	0.35	0.59
32086	-0.20	0.35	0.59
32091	-0.09	0.46	0.36
32096	-0.09	0.46	0.36
32101	0.03	0.54	0.22
32106	0.03	0.54	0.22
32111	0.09	0.61	0.13
32116	0.09	0.61	0.13
32121	0.14	0.65	0.07
32126	0.14	0.65	0.07
32131	0.19	0.60	0.06
32136	0.19	0.60	0.06
32141	0.25	0.41	0.07
32146	0.25	0.41	0.07
32151	0.20	0.38	0.05
32156	0.20	0.38	0.05
32161	0.16	0.35	0.02
32166	0.16	0.35	0.02
32171	0.12	0.30	0.04
32176	0.12	0.30	0.04
32181	0.08	0.32	0.06
32186	0.08	0.32	0.06
32191	0.03	0.40	0.07
32196	0.03	0.40	0.07
32201	-0.02	0.47	0.11
32206	-0.02	0.47	0.11
32211	-0.06	0.51	0.23
32216	-0.06	0.51	0.23
32221	-0.06	0.59	0.49
32226	-0.06	0.59	0.49
32231	0.01	0.69	0.89
32236	0.01	0.69	0.89
32241	0.03	0.69	1.17
32246	0.03	0.69	1.17
32251	-0.11	0.55	1.49
32256	-0.11	0.55	1.49
32261	-0.34	0.40	1.91
32266	-0.34	0.40	1.91
32271	-0.54	0.28	2.00
32276	-0.54	0.28	2.00
32281	-0.65	0.17	2.00
32286	-0.65	0.17	2.00
32291	-0.61	0.06	2.00
32296	-0.61	0.06	2.00
32301	-0.49	-0.04	2.00
32306	-0.49	-0.04	2.00
32311	-0.39	-0.09	1.99
32316	-0.39	-0.09	1.99
32321	-0.36	-0.07	1.82
32326	-0.36	-0.07	1.82
32331	-0.35	-0.00	1.52
32336	-0.35	-0.00	1.52
32341	-0.34	0.08	1.29
32346	-0.34	0.08	1.29
32351	-0.31	0.16	1.06
32356	-0.31	0.16	1.06
32361	-0.25	0.20	0.80
32366	-0.25	0.20	0.80
32371	-0.15	0.25	0.54
32376	-0.15	0.25	0.54
32381	-0.08	0.31	0.33
32386	-0.08	0.31	0.33
32391	-0.04	0.38	0.26
32396	-0.04	0.38	0.26
32401	-0.11	0.39	0.21
32406	-0.11	0.39	0.21
32411	-0.07	0.36	0.21
32416	-0.07	0.36	0.21
32421	-0.00	0.35	0.18
32426	-0.00	0.35	0.18
32431	0.06	0.38	0.10
32436	0.06	0.38	0.10
32441	0.15	0.39	0.04
32446	0.15	0.39	0.04
32451	0.27	0.37	0.05
32456	0.27	0.37	0.05
32461	0.33	0.34	0.09
32466	0.33	0.34	0.09
32471	0.26	0.44	0.11
32476	0.26	0.44	0.11
32481	0.13	0.61	0.28
32486	0.13	0.61	0.28
32491	0.11	0.78	0.57
32496	0.11	0.78	0.57
32501	0.08	0.80	0.91
32506	0.08	0.80	0.91
32511	-0.04	0.64	1.23
32516	-0.04	0.64	1.23
32521	-0.17	0.43	1.53
32526	-0.17	0.43	1.53
32531	-0.27	0.25	1.83
32536	-0.27	0.25	1.83
32541	-0.36	0.13	2.00
32546	-0.36	0.13	2.00
32551	-0.41	0.07	2.00
32556	-0.41	0.07	2.00
32561	-0.45	0.04	1.98
32566	-0.45	0.04	1.98
32571	-0.49	0.12	2.00
32576	-0.49	0.12	2.00
32581	-0.32	0.29	2.00
32586	-0.32	0.29	2.00
32591	-0.17	0.42	1.80
32596	-0.17	0.42	1.80
32601	-0.13	0.46	1.33
32606	-0.13	0.46	1.33
32611	-0.13	0.47	0.89
32616	-0.13	0.47	0.89
32621	-0.16	0.45	0.60
32626	-0.16	0.45	0.60
32631	-0.14	0.46	0.48
32636	-0.14	0.46	0.48
32641	-0.11	0.47	0.33
32646	-0.11	0.47	0.33
32651	0.01	0.41	0.03
32656	0.01	0.41	0.03
32661	0.05	0.30	-0.06
32666	0.05	0.30	-0.06
32671	0.15	0.18	-0.04
32676	0.15	0.18	-0.04
32681	0.16	0.18	-0.02
32686	0.16	0.18	-0.02
32691	0.09	0.22	-0.05
32696	0.09	0.22	-0.05
32701	0.04	0.21	-0.03
32706	0.04	0.21	-0.03
32711	-0.01	0.18	0.05
32716	-0.01	0.18	0.05
32721	-0.08	0.17	0.09
32726	-0.08	0.17	0.09
32731	-0.15	0.17	0.12
32736	-0.15	0.17	0.12
32741	-0.49	0.35	0.46
32746	-0.49	0.35	0.46
32751	-0.76	0.60	1.71
32756	-0.76	0.60	1.71
32761	-0.68	0.39	1.91
32766	-0.68	0.39	1.91
32771	-0.83	0.15	1.99
32776	-0.83	0.15	1.99
32781	-0.78	0.07	2.00
32786	-0.78	0.07	2.00
32791	-0.33	0.22	2.00
32796	-0.33	0.22	2.00
32801	-0.21	0.42	2.00
32806	-0.21	0.42	2.00
32811	-0.27	0.42	1.96
32816	-0.27	0.42	1.96
32821	-0.29	0.40	1.52
32826	-0.29	0.40	1.52
32831	-0.33	0.41	1.00
32836	-0.33	0.41	1.00
32841	-0.34	0.38	0.70
32846	-0.34	0.38	0.70
32851	-0.33	0.37	0.51
32856	-0.33	0.37	0.51
32861	-0.26	0.40	0.44
32866	-0.26	0.40	0.44
32871	-0.12	0.44	0.38
32876	-0.12	0.44	0.38
32881	-0.00	0.46	0.34
32886	-0.00	0.46	0.34
32891	-0.00	0.37	0.15
32896	-0.00	0.37	0.15
32901	-0.01	0.25	-0.03
32906	-0.01	0.25	-0.03
32911	0.01	0.22	-0.04
32916	0.01	0.22	-0.04
32921	-0.04	0.12	-0.03
32926	-0.04	0.12	-0.03
32931	0.05	0.09	-0.00
32936	0.05	0.09	-0.00
32941	0.02	0.10	0.07
32946	0.02	0.10	0.07
32951	-0.13	0.11	0.35
32956	-0.13	0.11	0.35
32961	-0.28	0.26	1.08
32966	-0.28	0.26	1.08
32971	-0.46	0.33	1.53
32976	-0.46	0.33	1.53
32981	-0.50	0.24	1.63
32986	-0.50	0.24	1.63
32991	-0.43	0.11	1.86
32996	-0.43	0.11	1.86
33001	-0.62	-0.01	2.00
33006	-0.62	-0.01	2.00
33011	-0.58	0.15	2.00
33016	-0.58	0.15	2.00
33021	-0.24	0.46	2.00
33026	-0.24	0.46	2.00
33031	-0.15	0.66	1.98
33036	-0.15	0.66	1.98
33041	-0.16	0.65	1.55
33046	-0.16	0.65	1.55
33051	-0.19	0.63	0.92
33056	-0.19	0.63	0.92
33061	-0.25	0.57	0.50
33066	-0.25	0.57	0.50
33071	-0.26	0.51	0.23
33076	-0.26	0.51	0.23
33081	-0.29	0.44	0.17
33086	-0.29	0.44	0.17
33091	-0.22	0.45	0.21
33096	-0.22	0.45	0.21
33101	-0.11	0.50	0.21
33106	-0.11	0.50	0.21
33111	0.01	0.55	0.21
33116	0.01	0.55	0.21
33121	0.09	0.55	0.21
33126	0.09	0.55	0.21
33131	0.21	0.42	0.09
33136	0.21	0.42	0.09
33141	0.37	0.02	-0.24
33146	0.37	0.02	-0.24
33151	0.31	-0.04	0.16
33156	0.31	-0.04	0.16
33161	0.06	-0.01	0.49
33166	0.06	-0.01	0.49
33171	-0.30	0.21	1.21
33176	-0.30	0.21	1.21
33181	-0.13	0.26	1.67
33186	-0.13	0.26	1.67
33191	0.05	0.24	1.52
33196	0.05	0.24	1.52
33201	0.12	0.23	1.47
33206	0.12	0.23	1.47
33211	0.00	0.14	1.55
33216	0.00	0.14	1.55
33221	-0.37	0.05	1.73
33226	-0.37	0.05	1.73
33231	-0.63	0.18	2.00
33236	-0.63	0.18	2.00
33241	-0.24	0.63	2.00
33246	-0.24	0.63	2.00
33251	0.04	0.92	1.68
33256	0.04	0.92	1.68
33261	0.11	0.82	1.00
33266	0.11	0.82	1.00
33271	0.04	0.63	0.51
33276	0.04	0.63	0.51
33281	-0.08	0.45	0.21
33286	-0.08	0.45	0.21
33291	-0.14	0.32	0.13
33296	-0.14	0.32	0.13
33301	-0.12	0.23	0.21
33306	-0.12	0.23	0.21
33311	0.02	0.32	0.35
33316	0.02	0.32	0.35
33321	0.08	0.48	0.37
33326	0.08	0.48	0.37
33331	0.08	0.53	0.36
33336	0.08	0.53	0.36
33341	0.05	0.32	0.12
33346	0.05	0.32	0.12
33351	0.15	0.06	-0.02
33356	0.15	0.06	-0.02
33361	0.21	-0.03	0.10
33366	0.21	-0.03	0.10
33371	0.09	0.02	0.40
33376	0.09	0.02	0.40
33381	-0.21	0.27	1.43
33386	-0.21	0.27	1.43
33391	-0.38	0.31	2.00
33396	-0.38	0.31	2.00
33401	-0.29	0.23	1.93
33406	-0.29	0.23	1.93
33411	-0.14	0.14	1.96
33416	-0.14	0.14	1.96
33421	-0.42	0.08	1.98
33426	-0.42	0.08	1.98
33431	-0.52	0.43	2.00
33436	-0.52	0.43	2.00
33441	0.02	1.04	2.00
33446	0.02	1.04	2.00
33451	0.16	1.31	1.81
33456	0.16	1.31	1.81
33461	-0.34	0.72	1.05
33466	-0.34	0.72	1.05
33471	-0.28	0.43	0.43
33476	-0.28	0.43	0.43
33481	-0.17	0.35	0.11
33486	-0.17	0.35	0.11
33491	-0.14	0.22	0.02
33496	-0.14	0.22	0.02
33501	-0.11	0.10	0.13
33506	-0.11	0.10	0.13
33511	-0.05	0.12	0.29
33516	-0.05	0.12	0.29
33521	0.00	0.24	0.31
33526	0.00	0.24	0.31
33531	-0.01	0.36	0.28
33536	-0.01	0.36	0.28
33541	0.21	0.28	-0.10
33546	0.21	0.28	-0.10
33551	0.47	-0.05	-0.56
33556	0.47	-0.05	-0.56
33561	0.31	-0.00	0.01
33566	0.31	-0.00	0.01
33571	0.06	0.04	0.27
33576	0.06	0.04	0.27
33581	0.06	-0.07	0.07
33586	0.06	-0.07	0.07
33591	0.12	0.05	0.28
33596	0.12	0.05	0.28
33601	0.01	0.69	1.32
33606	0.01	0.69	1.32
33611	0.03	0.71	1.75
33616	0.03	0.71	1.75
33621	-0.13	0.59	1.86
33626	-0.13	0.59	1.86
33631	-0.23	0.37	1.88
33636	-0.23	0.37	1.88
33641	-0.47	0.18	1.97
33646	-0.47	0.18	1.97
33651	-0.14	0.88	2.00
33656	-0.14	0.88	2.00
33661	-0.09	1.54	2.00
33666	-0.09	1.54	2.00
33671	-0.65	0.95	1.95
33676	-0.65	0.95	1.95
33681	-0.57	0.38	1.39
33686	-0.57	0.38	1.39
33691	-0.39	0.19	0.54
33696	-0.39	0.19	0.54
33701	-0.07	0.11	0.15
33706	-0.07	0.11	0.15
33711	-0.13	0.07	0.18
33716	-0.13	0.07	0.18
33721	-0.20	0.07	0.20
33726	-0.20	0.07	0.20
33731	-0.17	0.14	0.24
33736	-0.17	0.14	0.24
33741	-0.11	0.24	0.11
33746	-0.11	0.24	0.11
33751	0.16	0.18	-0.45
33756	0.16	0.18	-0.45
33761	0.15	-0.07	-0.51
33766	0.15	-0.07	-0.51
33771	0.14	-0.15	-0.00
33776	0.14	-0.15	-0.00
33781	0.15	-0.11	0.23
33786	0.15	-0.11	0.23
33791	0.08	0.01	0.15
33796	0.08	0.01	0.15
33801	0.29	-0.09	-0.04
33806	0.29	-0.09	-0.04
33811	1.20	0.19	-0.21
33816	1.20	0.19	-0.21
33821	1.19	0.47	-0.02
33826	1.19	0.47	-0.02
33831	-0.22	0.52	1.17
33836	-0.22	0.52	1.17
33841	0.44	1.07	1.55
33846	0.44	1.07	1.55
33851	0.01	0.94	1.59
33856	0.01	0.94	1.59
33861	0.08	0.93	1.73
33866	0.08	0.93	1.73
33871	0.29	1.20	1.87
33876	0.29	1.20	1.87
33881	-0.58	0.59	1.98
33886	-0.58	0.59	1.98
33891	-0.56	0.54	2.00
33896	-0.56	0.54	2.00
33901	-0.00	0.53	1.71
33906	-0.00	0.53	1.71
33911	0.28	0.69	1.11
33916	0.28	0.69	1.11
33921	-0.17	0.43	0.55
33926	-0.17	0.43	0.55
33931	-0.17	0.41	0.21
33936	-0.17	0.41	0.21
33941	-0.04	0.40	0.18
33946	-0.04	0.40	0.18
33951	0.12	0.43	0.29
33956	0.12	0.43	0.29
33961	0.09	0.40	0.37
33966	0.09	0.40	0.37
33971	0.03	0.39	0.41
33976	0.03	0.39	0.41
33981	0.10	0.45	0.36
33986	0.10	0.45	0.36
33991	0.22	0.48	0.35
33996	0.22	0.48	0.35
34001	0.32	0.47	0.46
34006	0.32	0.47	0.46
34011	0.42	0.44	0.67
34016	0.42	0.44	0.67
34021	0.56	0.43	0.92
34026	0.56	0.43	0.92
34031	0.70	0.42	1.17
34036	0.70	0.42	1.17
34041	0.74	0.37	1.38
34046	0.74	0.37	1.38
34051	0.67	0.29	1.52
34056	0.67	0.29	1.52
34061	0.47	0.21	1.53
34066	0.47	0.21	1.53
34071	0.24	0.19	1.46
34076	0.24	0.19	1.46
34081	0.07	0.24	1.32
34086	0.07	0.24	1.32
34091	-0.09	0.48	1.45
34096	-0.09	0.48	1.45
34101	-0.10	1.32	1.96
34106	-0.10	1.32	1.96
34111	-0.53	1.55	1.40
34116	-0.53	1.55	1.40
34121	-0.50	1.08	0.52
34126	-0.50	1.08	0.52
34131	-0.21	0.51	0.13
